# accelerometer data
# file: 'rgbd_dataset_freiburg2_pioneer_360.bag'
# timestamp ax ay az
1311876799.649164 0.323296 9.375588 -1.496741
1311876799.650166 0.323296 9.375588 -1.496741
1311876799.653798 0.227505 9.279797 -1.640429
1311876799.654790 0.227505 9.279797 -1.640429
1311876799.658069 0.502905 9.447432 -1.520689
1311876799.659163 0.502905 9.447432 -1.520689
1311876799.662686 0.371192 9.100188 -1.448846
1311876799.663694 0.371192 9.100188 -1.448846
1311876799.666964 0.119739 9.279797 -1.353054
1311876799.667957 0.119739 9.279797 -1.353054
1311876799.669190 0.119739 9.279797 -1.353054
1311876799.670201 0.119739 9.279797 -1.353054
1311876799.673829 0.407114 9.471380 -1.544637
1311876799.674814 0.407114 9.471380 -1.544637
1311876799.678062 0.227505 9.279797 -1.544637
1311876799.679074 0.227505 9.279797 -1.544637
1311876799.682711 0.407114 9.519276 -1.353054
1311876799.683698 0.407114 9.519276 -1.353054
1311876799.686948 0.407114 9.375588 -1.448846
1311876799.687952 0.407114 9.375588 -1.448846
1311876799.689197 0.407114 9.375588 -1.448846
1311876799.690183 0.407114 9.375588 -1.448846
1311876799.693846 0.227505 9.375588 -1.496741
1311876799.694836 0.227505 9.375588 -1.496741
1311876799.698075 0.407114 9.567171 -1.448846
1311876799.699066 0.407114 9.567171 -1.448846
1311876799.702701 0.119739 9.184006 -1.640429
1311876799.703835 0.119739 9.184006 -1.640429
1311876799.706951 0.047896 9.184006 -1.544637
1311876799.707947 0.047896 9.184006 -1.544637
1311876799.709189 0.047896 9.184006 -1.544637
1311876799.710308 0.047896 9.184006 -1.544637
1311876799.713818 0.371192 9.375588 -1.544637
1311876799.714840 0.371192 9.375588 -1.544637
1311876799.718071 0.227505 9.279797 -1.640429
1311876799.719067 0.227505 9.279797 -1.640429
1311876799.722695 0.371192 9.483354 -1.544637
1311876799.723685 0.371192 9.483354 -1.544637
1311876799.726950 0.323296 9.279797 -1.592533
1311876799.727951 0.323296 9.279797 -1.592533
1311876799.729193 0.323296 9.279797 -1.592533
1311876799.730326 0.323296 9.279797 -1.592533
1311876799.733808 0.119739 9.279797 -1.556611
1311876799.734812 0.119739 9.279797 -1.556611
1311876799.738052 0.407114 9.375588 -1.209367
1311876799.739187 0.407114 9.375588 -1.209367
1311876799.742675 0.227505 9.088214 -1.448846
1311876799.743813 0.227505 9.088214 -1.448846
1311876799.746936 0.227505 9.184006 -1.448846
1311876799.747949 0.227505 9.184006 -1.448846
1311876799.749161 0.227505 9.184006 -1.448846
1311876799.750186 0.227505 9.184006 -1.448846
1311876799.753823 0.407114 9.279797 -1.257263
1311876799.754819 0.407114 9.279797 -1.257263
1311876799.758071 0.119739 9.184006 -1.568585
1311876799.759190 0.119739 9.184006 -1.568585
1311876799.762816 0.371192 9.375588 -1.496741
1311876799.763822 0.371192 9.375588 -1.496741
1311876799.767040 0.407114 9.375588 -1.544637
1311876799.768060 0.407114 9.375588 -1.544637
1311876799.769540 0.407114 9.375588 -1.544637
1311876799.770685 0.407114 9.375588 -1.544637
1311876799.773947 0.227505 9.279797 -1.544637
1311876799.774949 0.227505 9.279797 -1.544637
1311876799.778207 0.323296 9.447432 -1.544637
1311876799.779192 0.323296 9.447432 -1.544637
1311876799.782816 0.227505 9.279797 -1.556611
1311876799.783820 0.227505 9.279797 -1.556611
1311876799.787073 0.071844 9.375588 -1.520689
1311876799.788087 0.071844 9.375588 -1.520689
1311876799.791323 0.407114 9.483354 -1.448846
1311876799.792341 0.407114 9.483354 -1.448846
1311876799.793953 0.407114 9.483354 -1.448846
1311876799.794961 0.407114 9.483354 -1.448846
1311876799.798195 0.119739 9.279797 -1.556611
1311876799.799182 0.119739 9.279797 -1.556611
1311876799.802785 0.323296 9.375588 -1.257263
1311876799.803823 0.323296 9.375588 -1.257263
1311876799.807038 0.323296 9.471380 -1.209367
1311876799.808060 0.323296 9.471380 -1.209367
1311876799.811716 0.119739 9.279797 -1.544637
1311876799.812682 0.119739 9.279797 -1.544637
1311876799.813955 0.119739 9.279797 -1.544637
1311876799.815088 0.119739 9.279797 -1.544637
1311876799.818195 0.407114 9.423484 -1.544637
1311876799.819227 0.407114 9.423484 -1.544637
1311876799.822662 0.227505 9.279797 -1.568585
1311876799.823815 0.227505 9.279797 -1.568585
1311876799.826972 0.119739 9.279797 -1.544637
1311876799.827948 0.119739 9.279797 -1.544637
1311876799.829242 0.119739 9.279797 -1.544637
1311876799.830329 0.119739 9.279797 -1.544637
1311876799.833819 0.323296 9.423484 -1.544637
1311876799.834967 0.323296 9.423484 -1.544637
1311876799.838089 0.023948 9.136110 -1.544637
1311876799.839042 0.023948 9.136110 -1.544637
1311876799.842714 0.407114 9.471380 -1.544637
1311876799.843686 0.407114 9.471380 -1.544637
1311876799.844842 0.407114 9.471380 -1.544637
1311876799.848089 0.407114 9.447432 -1.544637
1311876799.849036 0.407114 9.447432 -1.544637
1311876799.852347 0.023948 9.423484 -1.544637
1311876799.853687 0.023948 9.423484 -1.544637
1311876799.857041 0.407114 9.471380 -1.209367
1311876799.858090 0.407114 9.471380 -1.209367
1311876799.859202 0.407114 9.471380 -1.209367
1311876799.860319 0.407114 9.471380 -1.209367
1311876799.863949 0.119739 9.184006 -1.736220
1311876799.864949 0.119739 9.184006 -1.736220
1311876799.868186 0.227505 9.375588 -1.520689
1311876799.869198 0.227505 9.375588 -1.520689
1311876799.872817 0.407114 9.471380 -1.353054
1311876799.873820 0.407114 9.471380 -1.353054
1311876799.877065 0.227505 9.112162 -1.544637
1311876799.878076 0.227505 9.112162 -1.544637
1311876799.881701 0.119739 9.471380 -1.448846
1311876799.882694 0.119739 9.471380 -1.448846
1311876799.883955 0.119739 9.471380 -1.448846
1311876799.884969 0.119739 9.471380 -1.448846
1311876799.888211 0.407114 9.375588 -1.544637
1311876799.889188 0.407114 9.375588 -1.544637
1311876799.892699 0.071844 9.279797 -1.544637
1311876799.893839 0.071844 9.279797 -1.544637
1311876799.896949 0.323296 9.375588 -1.448846
1311876799.898062 0.323296 9.375588 -1.448846
1311876799.899196 0.323296 9.375588 -1.448846
1311876799.900315 0.323296 9.375588 -1.448846
1311876799.903825 0.119739 9.279797 -1.544637
1311876799.904954 0.119739 9.279797 -1.544637
1311876799.908076 0.323296 9.447432 -1.544637
1311876799.909192 0.323296 9.447432 -1.544637
1311876799.912689 0.502905 9.471380 -1.544637
1311876799.913846 0.502905 9.471380 -1.544637
1311876799.917089 0.119739 9.279797 -1.640429
1311876799.918091 0.119739 9.279797 -1.640429
1311876799.919308 0.119739 9.279797 -1.640429
1311876799.920326 0.119739 9.279797 -1.640429
1311876799.923950 0.407114 9.423484 -1.496741
1311876799.924948 0.407114 9.423484 -1.496741
1311876799.928069 0.407114 9.279797 -1.568585
1311876799.929161 0.407114 9.279797 -1.568585
1311876799.932814 0.119739 9.279797 -1.353054
1311876799.933827 0.119739 9.279797 -1.353054
1311876799.937067 0.431062 9.471380 -1.353054
1311876799.938078 0.431062 9.471380 -1.353054
1311876799.939571 0.431062 9.471380 -1.353054
1311876799.942824 0.119739 9.279797 -1.257263
1311876799.943809 0.119739 9.279797 -1.257263
1311876799.947065 0.071844 9.184006 -1.353054
1311876799.948042 0.071844 9.184006 -1.353054
1311876799.951312 0.407114 9.423484 -1.353054
1311876799.952318 0.407114 9.423484 -1.353054
1311876799.953938 0.407114 9.423484 -1.353054
1311876799.954944 0.407114 9.423484 -1.353054
1311876799.958294 0.071844 9.184006 -1.544637
1311876799.959193 0.071844 9.184006 -1.544637
1311876799.962791 0.371192 9.279797 -1.544637
1311876799.963827 0.371192 9.279797 -1.544637
1311876799.967067 0.407114 9.279797 -1.544637
1311876799.968110 0.407114 9.279797 -1.544637
1311876799.971315 0.119739 9.184006 -1.496741
1311876799.972342 0.119739 9.184006 -1.496741
1311876799.973967 0.119739 9.184006 -1.496741
1311876799.974942 0.119739 9.184006 -1.496741
1311876799.978200 0.407114 9.471380 -1.496741
1311876799.979186 0.407114 9.471380 -1.496741
1311876799.982818 0.119739 9.279797 -1.568585
1311876799.983820 0.119739 9.279797 -1.568585
1311876799.987059 0.071844 9.375588 -1.448846
1311876799.988066 0.071844 9.375588 -1.448846
1311876799.991698 0.407114 9.471380 -1.556611
1311876799.992821 0.407114 9.471380 -1.556611
1311876799.993837 0.407114 9.471380 -1.556611
1311876799.997071 0.071844 9.279797 -1.544637
1311876799.998054 0.071844 9.279797 -1.544637
1311876800.001707 0.119739 9.471380 -1.353054
1311876800.002659 0.119739 9.471380 -1.353054
1311876800.004065 0.119739 9.471380 -1.353054
1311876800.004945 0.119739 9.471380 -1.353054
1311876800.008181 0.227505 9.279797 -1.544637
1311876800.009179 0.227505 9.279797 -1.544637
1311876800.012805 0.227505 9.184006 -1.520689
1311876800.013783 0.227505 9.184006 -1.520689
1311876800.017062 0.395140 9.471380 -1.353054
1311876800.018031 0.395140 9.471380 -1.353054
1311876800.019285 0.395140 9.471380 -1.353054
1311876800.020281 0.395140 9.471380 -1.353054
1311876800.023934 0.071844 9.279797 -1.544637
1311876800.025086 0.071844 9.279797 -1.544637
1311876800.028301 0.227505 9.375588 -1.448846
1311876800.029191 0.227505 9.375588 -1.448846
1311876800.032820 0.407114 9.471380 -1.556611
1311876800.033952 0.407114 9.471380 -1.556611
1311876800.037213 0.119739 9.184006 -1.592533
1311876800.038069 0.119739 9.184006 -1.592533
1311876800.041690 0.119739 9.471380 -1.556611
1311876800.042692 0.119739 9.471380 -1.556611
1311876800.043687 0.119739 9.471380 -1.556611
1311876800.047066 0.407114 9.471380 -1.544637
1311876800.048060 0.407114 9.471380 -1.544637
1311876800.051734 0.023948 9.184006 -1.592533
1311876800.052811 0.023948 9.184006 -1.592533
1311876800.054060 0.023948 9.184006 -1.592533
1311876800.054930 0.023948 9.184006 -1.592533
1311876800.058184 0.407114 9.471380 -1.496741
1311876800.059198 0.407114 9.471380 -1.496741
1311876800.062823 0.227505 9.279797 -1.592533
1311876800.063817 0.227505 9.279797 -1.592533
1311876800.067041 0.023948 9.136110 -1.568585
1311876800.068062 0.023948 9.136110 -1.568585
1311876800.071699 0.407114 9.447432 -1.353054
1311876800.072842 0.407114 9.447432 -1.353054
1311876800.074068 0.407114 9.447432 -1.353054
1311876800.074941 0.407114 9.447432 -1.353054
1311876800.078317 0.047896 9.279797 -1.640429
1311876800.079325 0.047896 9.279797 -1.640429
1311876800.082931 0.371192 9.375588 -1.544637
1311876800.083964 0.371192 9.375588 -1.544637
1311876800.087066 0.407114 9.279797 -1.544637
1311876800.088066 0.407114 9.279797 -1.544637
1311876800.091316 0.227505 9.184006 -1.353054
1311876800.092687 0.227505 9.184006 -1.353054
1311876800.093946 0.227505 9.184006 -1.353054
1311876800.094941 0.227505 9.184006 -1.353054
1311876800.098170 0.407114 9.459406 -1.544637
1311876800.099189 0.407114 9.459406 -1.544637
1311876800.102800 0.227505 9.279797 -1.544637
1311876800.103816 0.227505 9.279797 -1.544637
1311876800.107037 0.227505 9.375588 -1.544637
1311876800.108066 0.227505 9.375588 -1.544637
1311876800.109708 0.227505 9.375588 -1.544637
1311876800.112937 0.502905 9.459406 -1.173445
1311876800.113939 0.502905 9.459406 -1.173445
1311876800.117234 0.119739 9.279797 -1.448846
1311876800.118191 0.119739 9.279797 -1.448846
1311876800.121825 0.395140 9.471380 -1.448846
1311876800.122838 0.395140 9.471380 -1.448846
1311876800.124070 0.395140 9.471380 -1.448846
1311876800.125059 0.395140 9.471380 -1.448846
1311876800.128197 0.323296 9.279797 -1.544637
1311876800.129189 0.323296 9.279797 -1.544637
1311876800.132668 0.119739 9.184006 -1.544637
1311876800.133822 0.119739 9.184006 -1.544637
1311876800.137038 0.407114 9.459406 -1.353054
1311876800.138057 0.407114 9.459406 -1.353054
1311876800.139282 0.407114 9.459406 -1.353054
1311876800.140306 0.407114 9.459406 -1.353054
1311876800.143820 0.227505 9.136110 -1.544637
1311876800.144936 0.227505 9.136110 -1.544637
1311876800.148059 0.227505 9.279797 -1.520689
1311876800.149190 0.227505 9.279797 -1.520689
1311876800.152794 0.407114 9.471380 -1.353054
1311876800.153820 0.407114 9.471380 -1.353054
1311876800.157072 0.119739 9.184006 -1.544637
1311876800.158038 0.119739 9.184006 -1.544637
1311876800.159310 0.119739 9.184006 -1.544637
1311876800.160340 0.119739 9.184006 -1.544637
1311876800.163944 0.407114 9.471380 -1.448846
1311876800.164932 0.407114 9.471380 -1.448846
1311876800.168067 0.323296 9.184006 -1.496741
1311876800.169317 0.323296 9.184006 -1.496741
1311876800.172829 0.047896 9.184006 -1.544637
1311876800.173812 0.047896 9.184006 -1.544637
1311876800.176927 0.407114 9.459406 -1.544637
1311876800.178062 0.407114 9.459406 -1.544637
1311876800.179362 0.407114 9.459406 -1.544637
1311876800.180305 0.407114 9.459406 -1.544637
1311876800.183819 0.119739 9.100188 -1.496741
1311876800.184932 0.119739 9.100188 -1.496741
1311876800.188066 0.227505 9.471380 -1.544637
1311876800.189185 0.227505 9.471380 -1.544637
1311876800.192685 0.502905 9.471380 -1.496741
1311876800.193822 0.502905 9.471380 -1.496741
1311876800.196919 0.227505 9.112162 -1.532663
1311876800.198035 0.227505 9.112162 -1.532663
1311876800.199185 0.227505 9.112162 -1.532663
1311876800.200186 0.227505 9.112162 -1.532663
1311876800.203941 0.407114 9.423484 -1.353054
1311876800.204983 0.407114 9.423484 -1.353054
1311876800.208060 0.323296 9.184006 -1.353054
1311876800.209048 0.323296 9.184006 -1.353054
1311876800.212821 0.035922 9.279797 -1.532663
1311876800.213821 0.035922 9.279797 -1.532663
1311876800.216915 0.407114 9.471380 -1.544637
1311876800.218061 0.407114 9.471380 -1.544637
1311876800.219181 0.407114 9.471380 -1.544637
1311876800.220316 0.407114 9.471380 -1.544637
1311876800.223930 0.071844 9.279797 -1.544637
1311876800.224934 0.071844 9.279797 -1.544637
1311876800.228065 0.227505 9.375588 -1.353054
1311876800.229180 0.227505 9.375588 -1.353054
1311876800.232816 0.407114 9.447432 -1.544637
1311876800.233824 0.407114 9.447432 -1.544637
1311876800.237062 0.023948 9.279797 -1.544637
1311876800.237935 0.023948 9.279797 -1.544637
1311876800.239162 0.023948 9.279797 -1.544637
1311876800.240165 0.023948 9.279797 -1.544637
1311876800.243823 0.407114 9.471380 -1.544637
1311876800.244986 0.407114 9.471380 -1.544637
1311876800.248061 0.227505 9.279797 -1.544637
1311876800.249232 0.227505 9.279797 -1.544637
1311876800.252676 0.023948 9.423484 -1.640429
1311876800.253815 0.023948 9.423484 -1.640429
1311876800.256934 0.407114 9.471380 -1.496741
1311876800.257904 0.407114 9.471380 -1.496741
1311876800.259188 0.407114 9.471380 -1.496741
1311876800.260185 0.407114 9.471380 -1.496741
1311876800.263811 0.023948 9.279797 -1.568585
1311876800.264807 0.023948 9.279797 -1.568585
1311876800.268042 0.119739 9.471380 -1.736220
1311876800.269056 0.119739 9.471380 -1.736220
1311876800.272806 0.455009 9.447432 -1.353054
1311876800.273798 0.455009 9.447432 -1.353054
1311876800.277046 0.023948 9.136110 -1.736220
1311876800.278045 0.023948 9.136110 -1.736220
1311876800.279771 0.023948 9.136110 -1.736220
1311876800.282797 0.227505 9.471380 -1.448846
1311876800.283789 0.227505 9.471380 -1.448846
1311876800.287044 0.407114 9.447432 -1.544637
1311876800.288043 0.407114 9.447432 -1.544637
1311876800.291676 0.023948 9.184006 -1.544637
1311876800.292775 0.023948 9.184006 -1.544637
1311876800.293801 0.023948 9.184006 -1.544637
1311876800.297050 0.407114 9.375588 -1.496741
1311876800.298045 0.407114 9.375588 -1.496741
1311876800.302258 0.227505 9.279797 -1.544637
1311876800.303032 0.227505 9.279797 -1.544637
1311876800.304183 0.227505 9.279797 -1.544637
1311876800.309075 0.119739 9.375588 -1.520689
1311876800.311770 0.502905 9.483354 -1.257263
1311876800.312793 0.502905 9.483354 -1.257263
1311876800.313962 0.502905 9.483354 -1.257263
1311876800.315078 0.502905 9.483354 -1.257263
1311876800.318199 0.023948 9.112162 -1.544637
1311876800.319161 0.023948 9.112162 -1.544637
1311876800.322814 0.407114 9.471380 -1.257263
1311876800.323894 0.407114 9.471380 -1.257263
1311876800.327035 0.407114 9.375588 -1.257263
1311876800.328019 0.407114 9.375588 -1.257263
1311876800.329550 0.407114 9.375588 -1.257263
1311876800.331135 0.407114 9.375588 -1.257263
1311876800.333933 0.119739 9.279797 -1.448846
1311876800.334915 0.119739 9.279797 -1.448846
1311876800.339016 0.407114 9.471380 -1.353054
1311876800.341708 0.227505 9.279797 -1.353054
1311876800.342683 0.227505 9.279797 -1.353054
1311876800.343665 0.227505 9.279797 -1.353054
1311876800.347046 0.227505 9.375588 -1.257263
1311876800.348196 0.227505 9.375588 -1.257263
1311876800.351692 0.407114 9.471380 -1.496741
1311876800.352804 0.407114 9.471380 -1.496741
1311876800.354047 0.407114 9.471380 -1.496741
1311876800.355049 0.407114 9.471380 -1.496741
1311876800.358188 0.047896 9.100188 -1.353054
1311876800.359170 0.047896 9.100188 -1.353054
1311876800.362670 0.227505 9.423484 -1.353054
1311876800.363798 0.227505 9.423484 -1.353054
1311876800.367034 0.407114 9.375588 -1.544637
1311876800.368047 0.407114 9.375588 -1.544637
1311876800.369405 0.407114 9.375588 -1.544637
1311876800.371143 0.407114 9.375588 -1.544637
1311876800.373937 0.023948 9.279797 -1.448846
1311876800.374913 0.023948 9.279797 -1.448846
1311876800.378204 0.419088 9.471380 -1.496741
1311876800.379179 0.419088 9.471380 -1.496741
1311876800.382842 0.227505 9.279797 -1.544637
1311876800.383804 0.227505 9.279797 -1.544637
1311876800.387558 0.227505 9.375588 -1.640429
1311876800.388657 0.227505 9.375588 -1.640429
1311876800.391809 0.407114 9.471380 -1.544637
1311876800.392811 0.407114 9.471380 -1.544637
1311876800.394063 0.407114 9.471380 -1.544637
1311876800.395031 0.407114 9.471380 -1.544637
1311876800.398261 0.023948 9.279797 -1.544637
1311876800.399163 0.023948 9.279797 -1.544637
1311876800.402799 0.371192 9.423484 -1.496741
1311876800.403809 0.371192 9.423484 -1.496741
1311876800.407115 0.407114 9.375588 -1.544637
1311876800.408093 0.407114 9.375588 -1.544637
1311876800.411328 0.227505 9.279797 -1.544637
1311876800.412306 0.227505 9.279797 -1.544637
1311876800.413961 0.227505 9.279797 -1.544637
1311876800.414917 0.227505 9.279797 -1.544637
1311876800.418168 0.407114 9.471380 -1.544637
1311876800.419170 0.407114 9.471380 -1.544637
1311876800.422781 0.227505 9.279797 -1.544637
1311876800.423769 0.227505 9.279797 -1.544637
1311876800.427034 0.227505 9.423484 -1.448846
1311876800.428017 0.227505 9.423484 -1.448846
1311876800.431691 0.419088 9.471380 -1.640429
1311876800.432676 0.419088 9.471380 -1.640429
1311876800.433937 0.419088 9.471380 -1.640429
1311876800.434933 0.419088 9.471380 -1.640429
1311876800.438275 0.071844 9.184006 -1.640429
1311876800.441717 0.395140 9.279797 -1.544637
1311876800.442929 0.395140 9.279797 -1.544637
1311876800.443868 0.395140 9.279797 -1.544637
1311876800.447101 0.407114 9.279797 -1.544637
1311876800.448047 0.407114 9.279797 -1.544637
1311876800.451309 0.071844 9.136110 -1.448846
1311876800.452296 0.071844 9.136110 -1.448846
1311876800.453927 0.071844 9.136110 -1.448846
1311876800.454945 0.071844 9.136110 -1.448846
1311876800.458169 0.419088 9.471380 -1.544637
1311876800.459179 0.419088 9.471380 -1.544637
1311876800.462657 0.119739 9.184006 -1.448846
1311876800.463673 0.119739 9.184006 -1.448846
1311876800.466926 0.227505 9.279797 -1.544637
1311876800.467907 0.227505 9.279797 -1.544637
1311876800.469161 0.227505 9.279797 -1.544637
1311876800.470285 0.227505 9.279797 -1.544637
1311876800.473791 0.407114 9.279797 -1.496741
1311876800.474847 0.407114 9.279797 -1.496741
1311876800.478048 0.023948 9.136110 -1.544637
1311876800.479177 0.023948 9.136110 -1.544637
1311876800.482678 0.371192 9.423484 -1.544637
1311876800.484000 0.371192 9.423484 -1.544637
1311876800.486920 0.407114 9.279797 -1.544637
1311876800.488028 0.407114 9.279797 -1.544637
1311876800.489284 0.407114 9.279797 -1.544637
1311876800.490278 0.407114 9.279797 -1.544637
1311876800.493810 0.227505 9.279797 -1.592533
1311876800.494791 0.227505 9.279797 -1.592533
1311876800.498028 0.502905 9.471380 -1.544637
1311876800.499069 0.502905 9.471380 -1.544637
1311876800.502067 0.119739 9.279797 -1.520689
1311876800.503065 0.119739 9.279797 -1.520689
1311876800.506719 0.119739 9.279797 -1.544637
1311876800.507886 0.119739 9.279797 -1.544637
1311876800.509056 0.119739 9.279797 -1.544637
1311876800.510015 0.119739 9.279797 -1.544637
1311876800.513206 0.407114 9.375588 -1.544637
1311876800.514163 0.407114 9.375588 -1.544637
1311876800.517856 -0.011974 9.279797 -1.592533
1311876800.518907 -0.011974 9.279797 -1.592533
1311876800.519952 -0.011974 9.279797 -1.592533
1311876800.523166 0.395140 9.375588 -1.353054
1311876800.524165 0.395140 9.375588 -1.353054
1311876800.527715 0.407114 9.375588 -1.448846
1311876800.528790 0.407114 9.375588 -1.448846
1311876800.531955 0.119739 9.279797 -1.556611
1311876800.533051 0.119739 9.279797 -1.556611
1311876800.534185 0.119739 9.279797 -1.556611
1311876800.535274 0.119739 9.279797 -1.556611
1311876800.538770 0.419088 9.471380 -1.544637
1311876800.539796 0.419088 9.471380 -1.544637
1311876800.543056 0.119739 9.184006 -1.520689
1311876800.544175 0.119739 9.184006 -1.520689
1311876800.547792 0.227505 9.447432 -1.640429
1311876800.548777 0.227505 9.447432 -1.640429
1311876800.551915 0.502905 9.471380 -1.353054
1311876800.553059 0.502905 9.471380 -1.353054
1311876800.554344 0.502905 9.471380 -1.353054
1311876800.555659 0.502905 9.471380 -1.353054
1311876800.558935 0.119739 9.279797 -1.736220
1311876800.559963 0.119739 9.279797 -1.736220
1311876800.563179 0.407114 9.471380 -1.496741
1311876800.564231 0.407114 9.471380 -1.496741
1311876800.567666 0.323296 9.423484 -1.544637
1311876800.568774 0.323296 9.423484 -1.544637
1311876800.571926 0.023948 9.184006 -1.544637
1311876800.573051 0.023948 9.184006 -1.544637
1311876800.574174 0.023948 9.184006 -1.544637
1311876800.575304 0.023948 9.184006 -1.544637
1311876800.578786 0.407114 9.447432 -1.520689
1311876800.579909 0.407114 9.447432 -1.520689
1311876800.583033 0.227505 9.279797 -1.448846
1311876800.584077 0.227505 9.279797 -1.448846
1311876800.587187 0.323296 9.279797 -1.448846
1311876800.588301 0.323296 9.279797 -1.448846
1311876800.591921 0.407114 9.375588 -1.448846
1311876800.592914 0.407114 9.375588 -1.448846
1311876800.594196 0.407114 9.375588 -1.448846
1311876800.595178 0.407114 9.375588 -1.448846
1311876800.598682 0.023948 9.279797 -1.496741
1311876800.599817 0.023948 9.279797 -1.496741
1311876800.603047 0.395140 9.471380 -1.353054
1311876800.604061 0.395140 9.471380 -1.353054
1311876800.607666 0.395140 9.471380 -1.520689
1311876800.608788 0.395140 9.471380 -1.520689
1311876800.611913 0.023948 9.279797 -1.544637
1311876800.612909 0.023948 9.279797 -1.544637
1311876800.614146 0.023948 9.279797 -1.544637
1311876800.615271 0.023948 9.279797 -1.544637
1311876800.618947 0.407114 9.471380 -1.448846
1311876800.622049 0.323296 9.375588 -1.448846
1311876800.622925 0.323296 9.375588 -1.448846
1311876800.624346 0.323296 9.375588 -1.448846
1311876800.627662 0.227505 9.279797 -1.496741
1311876800.628783 0.227505 9.279797 -1.496741
1311876800.633417 0.407114 9.279797 -1.544637
1311876800.634657 0.407114 9.279797 -1.544637
1311876800.638037 0.023948 9.184006 -1.640429
1311876800.639045 0.023948 9.184006 -1.640429
1311876800.641228 0.023948 9.184006 -1.640429
1311876800.643044 0.323296 9.279797 -1.496741
1311876800.644224 0.323296 9.279797 -1.496741
1311876800.647800 0.395140 9.279797 -1.496741
1311876800.648782 0.395140 9.279797 -1.496741
1311876800.651926 0.227505 9.112162 -1.544637
1311876800.653042 0.227505 9.112162 -1.544637
1311876800.654193 0.227505 9.112162 -1.544637
1311876800.655291 0.227505 9.112162 -1.544637
1311876800.658951 0.407114 9.423484 -1.353054
1311876800.659948 0.407114 9.423484 -1.353054
1311876800.663190 0.323296 9.184006 -1.544637
1311876800.664150 0.323296 9.184006 -1.544637
1311876800.667817 0.227505 9.375588 -1.544637
1311876800.668804 0.227505 9.375588 -1.544637
1311876800.672038 0.407114 9.471380 -1.544637
1311876800.672909 0.407114 9.471380 -1.544637
1311876800.674193 0.407114 9.471380 -1.544637
1311876800.675160 0.407114 9.471380 -1.544637
1311876800.678817 0.023948 9.279797 -1.544637
1311876800.679845 0.023948 9.279797 -1.544637
1311876800.683969 0.371192 9.375588 -1.544637
1311876800.686549 0.371192 9.279797 -1.544637
1311876800.687686 0.371192 9.279797 -1.544637
1311876800.688900 0.371192 9.279797 -1.544637
1311876800.690055 0.371192 9.279797 -1.544637
1311876800.693176 0.119739 9.279797 -1.544637
1311876800.694168 0.119739 9.279797 -1.544637
1311876800.697660 0.407114 9.471380 -1.592533
1311876800.698644 0.407114 9.471380 -1.592533
1311876800.702041 0.227505 9.375588 -1.544637
1311876800.702907 0.227505 9.375588 -1.544637
1311876800.704213 0.227505 9.375588 -1.544637
1311876800.705341 0.227505 9.375588 -1.544637
1311876800.708952 0.227505 9.471380 -1.353054
1311876800.709929 0.227505 9.471380 -1.353054
1311876800.713158 0.419088 9.279797 -1.544637
1311876800.714053 0.419088 9.279797 -1.544637
1311876800.717788 0.023948 9.279797 -1.544637
1311876800.718799 0.023948 9.279797 -1.544637
1311876800.722047 0.395140 9.471380 -1.544637
1311876800.723071 0.395140 9.471380 -1.544637
1311876800.724302 0.395140 9.471380 -1.544637
1311876800.725295 0.395140 9.471380 -1.544637
1311876800.728803 0.227505 9.279797 -1.544637
1311876800.729783 0.227505 9.279797 -1.544637
1311876800.733286 0.119739 9.279797 -1.556611
1311876800.734167 0.119739 9.279797 -1.556611
1311876800.735275 0.119739 9.279797 -1.556611
1311876800.738790 0.407114 9.423484 -1.592533
1311876800.739927 0.407114 9.423484 -1.592533
1311876800.742990 0.071844 9.184006 -1.556611
1311876800.744041 0.071844 9.184006 -1.556611
1311876800.747395 0.035922 9.279797 -1.544637
1311876800.748727 0.035922 9.279797 -1.544637
1311876800.751918 0.407114 9.279797 -1.544637
1311876800.752906 0.407114 9.279797 -1.544637
1311876800.754210 0.407114 9.279797 -1.544637
1311876800.755147 0.407114 9.279797 -1.544637
1311876800.758808 0.023948 9.112162 -1.544637
1311876800.759778 0.023948 9.112162 -1.544637
1311876800.763050 0.227505 9.375588 -1.448846
1311876800.764020 0.227505 9.375588 -1.448846
1311876800.767293 0.323296 9.375588 -1.544637
1311876800.768655 0.323296 9.375588 -1.544637
1311876800.771773 0.071844 9.184006 -1.544637
1311876800.772892 0.071844 9.184006 -1.544637
1311876800.774150 0.071844 9.184006 -1.544637
1311876800.775172 0.071844 9.184006 -1.544637
1311876800.778677 0.407114 9.375588 -1.592533
1311876800.779814 0.407114 9.375588 -1.592533
1311876800.782917 0.023948 9.184006 -1.640429
1311876800.784041 0.023948 9.184006 -1.640429
1311876800.787053 0.023948 9.136110 -1.544637
1311876800.788023 0.023948 9.136110 -1.544637
1311876800.791288 0.407114 9.423484 -1.544637
1311876800.792671 0.407114 9.423484 -1.544637
1311876800.793916 0.407114 9.423484 -1.544637
1311876800.795001 0.407114 9.423484 -1.544637
1311876800.798171 0.023948 9.184006 -1.568585
1311876800.799171 0.023948 9.184006 -1.568585
1311876800.802797 0.227505 9.471380 -1.544637
1311876800.803794 0.227505 9.471380 -1.544637
1311876800.807031 0.407114 9.375588 -1.544637
1311876800.808021 0.407114 9.375588 -1.544637
1311876800.809538 0.407114 9.375588 -1.544637
1311876800.810668 0.407114 9.375588 -1.544637
1311876800.813924 0.023948 9.447432 -1.592533
1311876800.814916 0.023948 9.447432 -1.592533
1311876800.818171 0.455009 9.471380 -1.544637
1311876800.819877 0.455009 9.471380 -1.544637
1311876800.822690 0.371192 9.279797 -1.556611
1311876800.823788 0.371192 9.279797 -1.556611
1311876800.827075 0.119739 9.279797 -1.544637
1311876800.828037 0.119739 9.279797 -1.544637
1311876800.829554 0.119739 9.279797 -1.544637
1311876800.830709 0.119739 9.279797 -1.544637
1311876800.834055 0.407114 9.279797 -1.544637
1311876800.835031 0.407114 9.279797 -1.544637
1311876800.838166 0.023948 9.279797 -1.544637
1311876800.839193 0.023948 9.279797 -1.544637
1311876800.842663 0.323296 9.447432 -1.544637
1311876800.843857 0.323296 9.447432 -1.544637
1311876800.847040 0.371192 9.375588 -1.544637
1311876800.848064 0.371192 9.375588 -1.544637
1311876800.851312 0.023948 9.279797 -1.556611
1311876800.852758 0.023948 9.279797 -1.556611
1311876800.853928 0.023948 9.279797 -1.556611
1311876800.854912 0.023948 9.279797 -1.556611
1311876800.858198 0.407114 9.471380 -1.353054
1311876800.859195 0.407114 9.471380 -1.353054
1311876800.862771 0.227505 9.184006 -1.544637
1311876800.863772 0.227505 9.184006 -1.544637
1311876800.867028 0.227505 9.375588 -1.544637
1311876800.868068 0.227505 9.375588 -1.544637
1311876800.869682 0.227505 9.375588 -1.544637
1311876800.872788 0.502905 9.375588 -1.353054
1311876800.873780 0.502905 9.375588 -1.353054
1311876800.877071 0.035922 9.184006 -1.544637
1311876800.878176 0.035922 9.184006 -1.544637
1311876800.881821 0.371192 9.471380 -1.544637
1311876800.882796 0.371192 9.471380 -1.544637
1311876800.883786 0.371192 9.471380 -1.544637
1311876800.887050 0.407114 9.279797 -1.544637
1311876800.888018 0.407114 9.279797 -1.544637
1311876800.891306 0.023948 9.279797 -1.544637
1311876800.892311 0.023948 9.279797 -1.544637
1311876800.893923 0.023948 9.279797 -1.544637
1311876800.894901 0.023948 9.279797 -1.544637
1311876800.898169 0.455009 9.483354 -1.448846
1311876800.899864 0.455009 9.483354 -1.448846
1311876800.902794 0.071844 9.184006 -1.448846
1311876800.903868 0.071844 9.184006 -1.448846
1311876800.907045 0.023948 9.279797 -1.544637
1311876800.908085 0.023948 9.279797 -1.544637
1311876800.911291 0.323296 9.279797 -1.544637
1311876800.912320 0.323296 9.279797 -1.544637
1311876800.913942 0.323296 9.279797 -1.544637
1311876800.914909 0.323296 9.279797 -1.544637
1311876800.918142 0.227505 9.279797 -1.544637
1311876800.919140 0.227505 9.279797 -1.544637
1311876800.922675 0.227505 9.375588 -1.736220
1311876800.923673 0.227505 9.375588 -1.736220
1311876800.926916 0.407114 9.279797 -1.544637
1311876800.927907 0.407114 9.279797 -1.544637
1311876800.929163 0.407114 9.279797 -1.544637
1311876800.930278 0.407114 9.279797 -1.544637
1311876800.933787 0.023948 9.279797 -1.544637
1311876800.934780 0.023948 9.279797 -1.544637
1311876800.938041 0.323296 9.471380 -1.353054
1311876800.939143 0.323296 9.471380 -1.353054
1311876800.942806 0.227505 9.279797 -1.544637
1311876800.943810 0.227505 9.279797 -1.544637
1311876800.947040 0.227505 9.279797 -1.496741
1311876800.948026 0.227505 9.279797 -1.496741
1311876800.949280 0.227505 9.279797 -1.496741
1311876800.950309 0.227505 9.279797 -1.496741
1311876800.953790 0.407114 9.459406 -1.544637
1311876800.954779 0.407114 9.459406 -1.544637
1311876800.958025 0.227505 9.279797 -1.556611
1311876800.959054 0.227505 9.279797 -1.556611
1311876800.962646 0.371192 9.471380 -1.544637
1311876800.963666 0.371192 9.471380 -1.544637
1311876800.967040 0.407114 9.279797 -1.544637
1311876800.968017 0.407114 9.279797 -1.544637
1311876800.969278 0.407114 9.279797 -1.544637
1311876800.970273 0.407114 9.279797 -1.544637
1311876800.973896 0.227505 9.279797 -1.448846
1311876800.974794 0.227505 9.279797 -1.448846
1311876800.978052 0.407114 9.471380 -1.544637
1311876800.979186 0.407114 9.471380 -1.544637
1311876800.982649 0.119739 9.279797 -1.544637
1311876800.983806 0.119739 9.279797 -1.544637
1311876800.984767 0.119739 9.279797 -1.544637
1311876800.988026 0.227505 9.279797 -1.592533
1311876800.989033 0.227505 9.279797 -1.592533
1311876800.992660 0.431062 9.375588 -1.496741
1311876800.993800 0.431062 9.375588 -1.496741
1311876800.994802 0.431062 9.375588 -1.496741
1311876800.998052 0.071844 9.279797 -1.736220
1311876800.999045 0.071844 9.279797 -1.736220
1311876801.003549 0.323296 9.471380 -1.496741
1311876801.004652 0.323296 9.471380 -1.496741
1311876801.007795 0.395140 9.423484 -1.532663
1311876801.008786 0.395140 9.423484 -1.532663
1311876801.012059 0.119739 9.184006 -1.532663
1311876801.013048 0.119739 9.184006 -1.532663
1311876801.016356 0.407114 9.447432 -1.544637
1311876801.017729 0.407114 9.447432 -1.544637
1311876801.018909 0.407114 9.447432 -1.544637
1311876801.019896 0.407114 9.447432 -1.544637
1311876801.023148 0.323296 9.279797 -1.640429
1311876801.024162 0.323296 9.279797 -1.640429
1311876801.027773 0.227505 9.375588 -1.544637
1311876801.028787 0.227505 9.375588 -1.544637
1311876801.032023 0.323296 9.471380 -1.448846
1311876801.033150 0.323296 9.471380 -1.448846
1311876801.036784 0.227505 9.279797 -1.640429
1311876801.037813 0.227505 9.279797 -1.640429
1311876801.038908 0.227505 9.279797 -1.640429
1311876801.040032 0.227505 9.279797 -1.640429
1311876801.043180 0.407114 9.459406 -1.353054
1311876801.044165 0.407114 9.459406 -1.353054
1311876801.047768 0.323296 9.279797 -1.353054
1311876801.048756 0.323296 9.279797 -1.353054
1311876801.052052 0.023948 9.279797 -1.544637
1311876801.053026 0.023948 9.279797 -1.544637
1311876801.054302 0.023948 9.279797 -1.544637
1311876801.055290 0.023948 9.279797 -1.544637
1311876801.058805 0.407114 9.471380 -1.532663
1311876801.059791 0.407114 9.471380 -1.532663
1311876801.063027 0.119739 9.375588 -1.592533
1311876801.064202 0.119739 9.375588 -1.592533
1311876801.067773 0.023948 9.423484 -1.640429
1311876801.068795 0.023948 9.423484 -1.640429
1311876801.071964 0.407114 9.471380 -1.496741
1311876801.073045 0.407114 9.471380 -1.496741
1311876801.074306 0.407114 9.471380 -1.496741
1311876801.075297 0.407114 9.471380 -1.496741
1311876801.078796 0.023948 9.184006 -1.592533
1311876801.079915 0.023948 9.184006 -1.592533
1311876801.083049 0.371192 9.483354 -1.640429
1311876801.084174 0.371192 9.483354 -1.640429
1311876801.087771 0.407114 9.279797 -1.544637
1311876801.088788 0.407114 9.279797 -1.544637
1311876801.092046 0.023948 9.184006 -1.544637
1311876801.093039 0.023948 9.184006 -1.544637
1311876801.094167 0.023948 9.184006 -1.544637
1311876801.095154 0.023948 9.184006 -1.544637
1311876801.098788 0.407114 9.471380 -1.544637
1311876801.099924 0.407114 9.471380 -1.544637
1311876801.103176 0.119739 9.279797 -1.640429
1311876801.104156 0.119739 9.279797 -1.640429
1311876801.107825 0.119739 9.184006 -1.568585
1311876801.108783 0.119739 9.184006 -1.568585
1311876801.112053 0.407114 9.471380 -1.544637
1311876801.113177 0.407114 9.471380 -1.544637
1311876801.114690 0.407114 9.471380 -1.544637
1311876801.117916 0.023948 9.088214 -1.640429
1311876801.118762 0.023948 9.088214 -1.640429
1311876801.122037 0.227505 9.447432 -1.544637
1311876801.123044 0.227505 9.447432 -1.544637
1311876801.126779 0.407114 9.375588 -1.592533
1311876801.127783 0.407114 9.375588 -1.592533
1311876801.128759 0.407114 9.375588 -1.592533
1311876801.132488 0.227505 9.184006 -1.544637
1311876801.133648 0.227505 9.184006 -1.544637
1311876801.134771 0.227505 9.184006 -1.544637
1311876801.135735 0.227505 9.184006 -1.544637
1311876801.139101 0.407114 9.471380 -1.353054
1311876801.140044 0.407114 9.471380 -1.353054
1311876801.143187 0.227505 9.279797 -1.544637
1311876801.144168 0.227505 9.279797 -1.544637
1311876801.147773 0.047896 9.279797 -1.532663
1311876801.148781 0.047896 9.279797 -1.532663
1311876801.152064 0.598697 9.447432 -1.353054
1311876801.153161 0.598697 9.447432 -1.353054
1311876801.156675 0.215531 9.279797 -1.448846
1311876801.157754 0.215531 9.279797 -1.448846
1311876801.158756 0.215531 9.279797 -1.448846
1311876801.162046 0.227505 9.471380 -1.544637
1311876801.163018 0.227505 9.471380 -1.544637
1311876801.166654 0.407114 9.375588 -1.544637
1311876801.167797 0.407114 9.375588 -1.544637
1311876801.168795 0.407114 9.375588 -1.544637
1311876801.172041 0.227505 9.184006 -1.592533
1311876801.173039 0.227505 9.184006 -1.592533
1311876801.176678 0.371192 9.471380 -1.640429
1311876801.177665 0.371192 9.471380 -1.640429
1311876801.178917 0.371192 9.471380 -1.640429
1311876801.180023 0.371192 9.471380 -1.640429
1311876801.183035 0.071844 9.184006 -1.544637
1311876801.184011 0.071844 9.184006 -1.544637
1311876801.187780 0.071844 9.375588 -1.544637
1311876801.188772 0.071844 9.375588 -1.544637
1311876801.191925 0.407114 9.471380 -1.353054
1311876801.193033 0.407114 9.471380 -1.353054
1311876801.194379 0.407114 9.471380 -1.353054
1311876801.195524 0.407114 9.471380 -1.353054
1311876801.198901 0.023948 9.279797 -1.544637
1311876801.199879 0.023948 9.279797 -1.544637
1311876801.203172 0.407114 9.495328 -1.353054
1311876801.204138 0.407114 9.495328 -1.353054
1311876801.207793 0.407114 9.375588 -1.544637
1311876801.208788 0.407114 9.375588 -1.544637
1311876801.212061 0.071844 9.279797 -1.592533
1311876801.213167 0.071844 9.279797 -1.592533
1311876801.216286 0.407114 9.459406 -1.544637
1311876801.217638 0.407114 9.459406 -1.544637
1311876801.218907 0.407114 9.459406 -1.544637
1311876801.220051 0.407114 9.459406 -1.544637
1311876801.223045 0.227505 9.136110 -1.544637
1311876801.224048 0.227505 9.136110 -1.544637
1311876801.227652 0.119739 9.279797 -1.592533
1311876801.228767 0.119739 9.279797 -1.592533
1311876801.231930 0.371192 9.471380 -1.353054
1311876801.233021 0.371192 9.471380 -1.353054
1311876801.234273 0.371192 9.471380 -1.353054
1311876801.235279 0.371192 9.471380 -1.353054
1311876801.238914 0.023948 9.112162 -1.640429
1311876801.239916 0.023948 9.112162 -1.640429
1311876801.243179 0.227505 9.471380 -1.496741
1311876801.244149 0.227505 9.471380 -1.496741
1311876801.247683 0.323296 9.279797 -1.544637
1311876801.248783 0.323296 9.279797 -1.544637
1311876801.252051 0.023948 9.279797 -1.544637
1311876801.253044 0.023948 9.279797 -1.544637
1311876801.254313 0.023948 9.279797 -1.544637
1311876801.255638 0.023948 9.279797 -1.544637
1311876801.258641 0.407114 9.471380 -1.532663
1311876801.259696 0.407114 9.471380 -1.532663
1311876801.262910 0.227505 9.184006 -1.544637
1311876801.263884 0.227505 9.184006 -1.544637
1311876801.267014 0.035922 9.375588 -1.353054
1311876801.268030 0.035922 9.375588 -1.353054
1311876801.271665 0.598697 9.471380 -1.448846
1311876801.272760 0.598697 9.471380 -1.448846
1311876801.273756 0.598697 9.471380 -1.448846
1311876801.277041 0.323296 9.279797 -1.544637
1311876801.278021 0.323296 9.279797 -1.544637
1311876801.281696 0.227505 9.375588 -1.520689
1311876801.282784 0.227505 9.375588 -1.520689
1311876801.283931 0.227505 9.375588 -1.520689
1311876801.284936 0.227505 9.375588 -1.520689
1311876801.288036 0.227505 9.375588 -1.544637
1311876801.289288 0.227505 9.375588 -1.544637
1311876801.292670 0.023948 9.184006 -1.544637
1311876801.293787 0.023948 9.184006 -1.544637
1311876801.296915 0.371192 9.471380 -1.544637
1311876801.298006 0.371192 9.471380 -1.544637
1311876801.299147 0.371192 9.471380 -1.544637
1311876801.300144 0.371192 9.471380 -1.544637
1311876801.303816 0.023948 9.100188 -1.448846
1311876801.304794 0.023948 9.100188 -1.448846
1311876801.309309 0.047896 9.375588 -1.448846
1311876801.311571 0.407114 9.471380 -1.353054
1311876801.314019 0.407114 9.471380 -1.353054
1311876801.316818 0.071844 9.184006 -1.640429
1311876801.317781 0.071844 9.184006 -1.640429
1311876801.319045 0.071844 9.184006 -1.640429
1311876801.320009 0.071844 9.184006 -1.640429
1311876801.323166 0.371192 9.471380 -1.448846
1311876801.324160 0.371192 9.471380 -1.448846
1311876801.327677 0.407114 9.471380 -1.353054
1311876801.328772 0.407114 9.471380 -1.353054
1311876801.332062 0.023948 9.279797 -1.448846
1311876801.333122 0.023948 9.279797 -1.448846
1311876801.336301 0.407114 9.423484 -1.496741
1311876801.337688 0.407114 9.423484 -1.496741
1311876801.338776 0.407114 9.423484 -1.496741
1311876801.339901 0.407114 9.423484 -1.496741
1311876801.343167 0.119739 9.136110 -1.592533
1311876801.344167 0.119739 9.136110 -1.592533
1311876801.347791 0.071844 9.375588 -1.520689
1311876801.348778 0.071844 9.375588 -1.520689
1311876801.352057 0.407114 9.375588 -1.353054
1311876801.353138 0.407114 9.375588 -1.353054
1311876801.356791 0.227505 9.184006 -1.544637
1311876801.357644 0.227505 9.184006 -1.544637
1311876801.358885 0.227505 9.184006 -1.544637
1311876801.359910 0.227505 9.184006 -1.544637
1311876801.363035 0.395140 9.471380 -1.544637
1311876801.364155 0.395140 9.471380 -1.544637
1311876801.367667 0.227505 9.279797 -1.353054
1311876801.368784 0.227505 9.279797 -1.353054
1311876801.372041 0.023948 9.088214 -1.544637
1311876801.373036 0.023948 9.088214 -1.544637
1311876801.376678 0.395140 9.471380 -1.353054
1311876801.377646 0.395140 9.471380 -1.353054
1311876801.378911 0.395140 9.471380 -1.353054
1311876801.380039 0.395140 9.471380 -1.353054
1311876801.383273 0.227505 9.279797 -1.640429
1311876801.384281 0.227505 9.279797 -1.640429
1311876801.387779 0.071844 9.459406 -1.568585
1311876801.388770 0.071844 9.459406 -1.568585
1311876801.392042 0.419088 9.471380 -1.640429
1311876801.393030 0.419088 9.471380 -1.640429
1311876801.396657 0.227505 9.279797 -1.556611
1311876801.397701 0.227505 9.279797 -1.556611
1311876801.399087 0.227505 9.279797 -1.556611
1311876801.404929 0.227505 9.375588 -1.592533
1311876801.406690 0.419088 9.279797 -1.544637
1311876801.407797 0.419088 9.279797 -1.544637
1311876801.408798 0.419088 9.279797 -1.544637
1311876801.412014 0.023948 9.279797 -1.544637
1311876801.413018 0.023948 9.279797 -1.544637
1311876801.414550 0.023948 9.279797 -1.544637
1311876801.417778 0.395140 9.471380 -1.568585
1311876801.418789 0.395140 9.471380 -1.568585
1311876801.422132 0.323296 9.279797 -1.640429
1311876801.423212 0.323296 9.279797 -1.640429
1311876801.426694 0.023948 9.375588 -1.544637
1311876801.427651 0.023948 9.375588 -1.544637
1311876801.428751 0.023948 9.375588 -1.544637
1311876801.432036 0.407114 9.375588 -1.544637
1311876801.433146 0.407114 9.375588 -1.544637
1311876801.434646 0.407114 9.375588 -1.544637
1311876801.437783 0.071844 9.112162 -1.544637
1311876801.438761 0.071844 9.112162 -1.544637
1311876801.442166 0.119739 9.279797 -1.257263
1311876801.443180 0.119739 9.279797 -1.257263
1311876801.446785 0.407114 9.423484 -1.448846
1311876801.447650 0.407114 9.423484 -1.448846
1311876801.448922 0.407114 9.423484 -1.448846
1311876801.450037 0.407114 9.423484 -1.448846
1311876801.453161 0.035922 9.279797 -1.568585
1311876801.454324 0.035922 9.279797 -1.568585
1311876801.457785 0.419088 9.375588 -1.496741
1311876801.458765 0.419088 9.375588 -1.496741
1311876801.461917 0.407114 9.279797 -1.448846
1311876801.462902 0.407114 9.279797 -1.448846
1311876801.464168 0.407114 9.279797 -1.448846
1311876801.465288 0.407114 9.279797 -1.448846
1311876801.468897 0.323296 9.279797 -1.544637
1311876801.469908 0.323296 9.279797 -1.544637
1311876801.473023 0.407114 9.279797 -1.544637
1311876801.474006 0.407114 9.279797 -1.544637
1311876801.477648 0.023948 9.184006 -1.544637
1311876801.478680 0.023948 9.184006 -1.544637
1311876801.479776 0.023948 9.184006 -1.544637
1311876801.483037 0.323296 9.471380 -1.592533
1311876801.484027 0.323296 9.471380 -1.592533
1311876801.487303 0.407114 9.279797 -1.556611
1311876801.488624 0.407114 9.279797 -1.556611
1311876801.491944 0.023948 9.184006 -1.640429
1311876801.493250 0.023948 9.184006 -1.640429
1311876801.494146 0.023948 9.184006 -1.640429
1311876801.495155 0.023948 9.184006 -1.640429
1311876801.498815 0.455009 9.375588 -1.544637
1311876801.499781 0.455009 9.375588 -1.544637
1311876801.503306 0.119739 9.279797 -1.592533
1311876801.506665 0.227505 9.279797 -1.592533
1311876801.507773 0.227505 9.279797 -1.592533
1311876801.508898 0.227505 9.279797 -1.592533
1311876801.512026 0.431062 9.279797 -1.448846
1311876801.513123 0.431062 9.279797 -1.448846
1311876801.516285 0.119739 9.184006 -1.544637
1311876801.517631 0.119739 9.184006 -1.544637
1311876801.518885 0.119739 9.184006 -1.544637
1311876801.519886 0.119739 9.184006 -1.544637
1311876801.523056 0.323296 9.471380 -1.532663
1311876801.524161 0.323296 9.471380 -1.532663
1311876801.527641 0.455009 9.279797 -1.520689
1311876801.528775 0.455009 9.279797 -1.520689
1311876801.531906 0.227505 9.279797 -1.544637
1311876801.532898 0.227505 9.279797 -1.544637
1311876801.534256 0.227505 9.279797 -1.544637
1311876801.535274 0.227505 9.279797 -1.544637
1311876801.538778 0.455009 9.471380 -1.353054
1311876801.539770 0.455009 9.471380 -1.353054
1311876801.543009 0.227505 9.279797 -1.592533
1311876801.544059 0.227505 9.279797 -1.592533
1311876801.547640 0.023948 9.279797 -1.544637
1311876801.548630 0.023948 9.279797 -1.544637
1311876801.549634 0.023948 9.279797 -1.544637
1311876801.553144 0.227505 9.375588 -1.448846
1311876801.554130 0.227505 9.375588 -1.448846
1311876801.557764 0.023948 9.279797 -1.544637
1311876801.558669 0.023948 9.279797 -1.544637
1311876801.561903 0.071844 9.375588 -1.556611
1311876801.562903 0.071844 9.375588 -1.556611
1311876801.564166 0.071844 9.375588 -1.556611
1311876801.565285 0.071844 9.375588 -1.556611
1311876801.568796 0.371192 9.279797 -1.736220
1311876801.569783 0.371192 9.279797 -1.736220
1311876801.573154 0.227505 9.279797 -1.556611
1311876801.574026 0.227505 9.279797 -1.556611
1311876801.577645 0.407114 9.495328 -1.448846
1311876801.578663 0.407114 9.495328 -1.448846
1311876801.582034 0.407114 9.279797 -1.544637
1311876801.583006 0.407114 9.279797 -1.544637
1311876801.584263 0.407114 9.279797 -1.544637
1311876801.585128 0.407114 9.279797 -1.544637
1311876801.588770 0.119739 9.375588 -1.544637
1311876801.589882 0.119739 9.375588 -1.544637
1311876801.593024 0.407114 9.279797 -1.496741
1311876801.594039 0.407114 9.279797 -1.496741
1311876801.597655 0.119739 9.136110 -1.544637
1311876801.598640 0.119739 9.136110 -1.544637
1311876801.599694 0.119739 9.136110 -1.544637
1311876801.603105 0.407114 9.375588 -1.544637
1311876801.604013 0.407114 9.375588 -1.544637
1311876801.607297 0.407114 9.279797 -1.448846
1311876801.608875 0.407114 9.279797 -1.448846
1311876801.611786 0.035922 9.100188 -1.544637
1311876801.612902 0.035922 9.100188 -1.544637
1311876801.614144 0.035922 9.100188 -1.544637
1311876801.615269 0.035922 9.100188 -1.544637
1311876801.618754 0.407114 9.471380 -1.353054
1311876801.619910 0.407114 9.471380 -1.353054
1311876801.623055 0.227505 9.279797 -1.496741
1311876801.624154 0.227505 9.279797 -1.496741
1311876801.627640 0.323296 9.423484 -1.568585
1311876801.628647 0.323296 9.423484 -1.568585
1311876801.629747 0.323296 9.423484 -1.568585
1311876801.633011 0.407114 9.375588 -1.544637
1311876801.634134 0.407114 9.375588 -1.544637
1311876801.637799 0.071844 9.136110 -1.640429
1311876801.638769 0.071844 9.136110 -1.640429
1311876801.639759 0.071844 9.136110 -1.640429
1311876801.643009 0.407114 9.279797 -1.496741
1311876801.644017 0.407114 9.279797 -1.496741
1311876801.647526 0.407114 9.279797 -1.496741
1311876801.648649 0.407114 9.279797 -1.496741
1311876801.651899 0.119739 9.279797 -1.544637
1311876801.653020 0.119739 9.279797 -1.544637
1311876801.654336 0.119739 9.279797 -1.544637
1311876801.657719 0.407114 9.471380 -1.544637
1311876801.658663 0.407114 9.471380 -1.544637
1311876801.661928 0.395140 9.279797 -1.544637
1311876801.662913 0.395140 9.279797 -1.544637
1311876801.664160 0.395140 9.279797 -1.544637
1311876801.665162 0.395140 9.279797 -1.544637
1311876801.668785 0.227505 9.447432 -1.544637
1311876801.669932 0.227505 9.447432 -1.544637
1311876801.673163 0.502905 9.471380 -1.496741
1311876801.674155 0.502905 9.471380 -1.496741
1311876801.677672 0.071844 9.088214 -1.640429
1311876801.678670 0.071844 9.088214 -1.640429
1311876801.681908 0.227505 9.375588 -1.257263
1311876801.683024 0.227505 9.375588 -1.257263
1311876801.684153 0.227505 9.375588 -1.257263
1311876801.685649 0.227505 9.375588 -1.257263
1311876801.688289 0.407114 9.279797 -1.353054
1311876801.689646 0.407114 9.279797 -1.353054
1311876801.692905 0.023948 9.279797 -1.544637
1311876801.693887 0.023948 9.279797 -1.544637
1311876801.697055 0.407114 9.279797 -1.556611
1311876801.698022 0.407114 9.279797 -1.556611
1311876801.701713 0.502905 9.279797 -1.448846
1311876801.702668 0.502905 9.279797 -1.448846
1311876801.703812 0.502905 9.279797 -1.448846
1311876801.707042 0.023948 9.375588 -1.544637
1311876801.708043 0.023948 9.375588 -1.544637
1311876801.711287 0.407114 9.471380 -1.520689
1311876801.712261 0.407114 9.471380 -1.520689
1311876801.713913 0.407114 9.471380 -1.520689
1311876801.714893 0.407114 9.471380 -1.520689
1311876801.718140 0.023948 9.279797 -1.736220
1311876801.719128 0.023948 9.279797 -1.736220
1311876801.722810 0.323296 9.471380 -1.544637
1311876801.723769 0.323296 9.471380 -1.544637
1311876801.727020 0.407114 9.459406 -1.353054
1311876801.728005 0.407114 9.459406 -1.353054
1311876801.731309 -0.011974 9.279797 -1.353054
1311876801.732294 -0.011974 9.279797 -1.353054
1311876801.733906 -0.011974 9.279797 -1.353054
1311876801.734948 -0.011974 9.279797 -1.353054
1311876801.738167 0.407114 9.471380 -1.544637
1311876801.739161 0.407114 9.471380 -1.544637
1311876801.742755 0.227505 9.279797 -1.544637
1311876801.743804 0.227505 9.279797 -1.544637
1311876801.746901 0.119739 9.279797 -1.544637
1311876801.748024 0.119739 9.279797 -1.544637
1311876801.749252 0.119739 9.279797 -1.544637
1311876801.750645 0.119739 9.279797 -1.544637
1311876801.753670 0.455009 9.471380 -1.640429
1311876801.754655 0.455009 9.471380 -1.640429
1311876801.757903 0.407114 9.184006 -1.544637
1311876801.759028 0.407114 9.184006 -1.544637
1311876801.762048 0.407114 9.279797 -1.951751
1311876801.763147 0.407114 9.279797 -1.951751
1311876801.766767 0.502905 9.423484 -1.544637
1311876801.767757 0.502905 9.423484 -1.544637
1311876801.769078 0.502905 9.423484 -1.544637
1311876801.770029 0.502905 9.423484 -1.544637
1311876801.773151 0.395140 9.088214 -1.544637
1311876801.774143 0.395140 9.088214 -1.544637
1311876801.777695 0.598697 9.375588 -1.592533
1311876801.778682 0.598697 9.375588 -1.592533
1311876801.781936 0.455009 9.279797 -1.832012
1311876801.785001 0.455009 9.279797 -1.832012
1311876801.786779 0.119739 9.184006 -1.353054
1311876801.787773 0.119739 9.184006 -1.353054
1311876801.789017 0.119739 9.184006 -1.353054
1311876801.790046 0.119739 9.184006 -1.353054
1311876801.793152 0.407114 9.471380 -1.448846
1311876801.794136 0.407114 9.471380 -1.448846
1311876801.797779 0.119739 9.279797 -1.640429
1311876801.798759 0.119739 9.279797 -1.640429
1311876801.802144 0.227505 9.471380 -1.544637
1311876801.803013 0.227505 9.471380 -1.544637
1311876801.806710 0.227505 9.471380 -1.257263
1311876801.807819 0.227505 9.471380 -1.257263
1311876801.809057 0.227505 9.471380 -1.257263
1311876801.809903 0.227505 9.471380 -1.257263
1311876801.813160 -0.167635 9.184006 -1.448846
1311876801.814282 -0.167635 9.184006 -1.448846
1311876801.817761 0.371192 9.471380 -1.353054
1311876801.818877 0.371192 9.471380 -1.353054
1311876801.822029 0.023948 9.423484 -1.353054
1311876801.823134 0.023948 9.423484 -1.353054
1311876801.824251 0.023948 9.423484 -1.353054
1311876801.825642 0.023948 9.423484 -1.353054
1311876801.828893 -0.167635 9.662963 -1.353054
1311876801.829866 -0.167635 9.662963 -1.353054
1311876801.833134 0.227505 9.662963 -1.568585
1311876801.834128 0.227505 9.662963 -1.568585
1311876801.838714 -0.167635 9.495328 -1.927803
1311876801.841670 -0.059870 9.471380 -1.592533
1311876801.842757 -0.059870 9.471380 -1.592533
1311876801.843922 -0.059870 9.471380 -1.592533
1311876801.845017 -0.059870 9.471380 -1.592533
1311876801.848172 0.119739 9.471380 -1.544637
1311876801.849137 0.119739 9.471380 -1.544637
1311876801.852762 0.023948 9.279797 -1.975699
1311876801.853763 0.023948 9.279797 -1.975699
1311876801.857156 0.455009 9.471380 -1.544637
1311876801.858124 0.455009 9.471380 -1.544637
1311876801.861629 0.323296 9.184006 -1.353054
1311876801.862759 0.323296 9.184006 -1.353054
1311876801.863880 0.323296 9.184006 -1.353054
1311876801.865002 0.323296 9.184006 -1.353054
1311876801.868150 0.047896 9.279797 -1.496741
1311876801.869141 0.047896 9.279797 -1.496741
1311876801.872638 0.706462 9.471380 -1.544637
1311876801.873752 0.706462 9.471380 -1.544637
1311876801.876899 0.407114 9.279797 -1.544637
1311876801.878040 0.407114 9.279797 -1.544637
1311876801.879149 0.407114 9.279797 -1.544637
1311876801.880264 0.407114 9.279797 -1.544637
1311876801.883887 0.419088 9.495328 -1.113576
1311876801.885045 0.419088 9.495328 -1.113576
1311876801.888148 0.598697 9.483354 -1.353054
1311876801.889142 0.598697 9.483354 -1.353054
1311876801.892766 0.407114 9.375588 -1.592533
1311876801.893791 0.407114 9.375588 -1.592533
1311876801.897025 0.502905 9.375588 -1.353054
1311876801.898010 0.502905 9.375588 -1.353054
1311876801.901841 0.598697 9.375588 -1.113576
1311876801.902774 0.598697 9.375588 -1.113576
1311876801.903913 0.598697 9.375588 -1.113576
1311876801.905032 0.598697 9.375588 -1.113576
1311876801.908030 0.323296 9.088214 -1.257263
1311876801.909302 0.323296 9.088214 -1.257263
1311876801.912765 0.993836 9.279797 -1.496741
1311876801.913773 0.993836 9.279797 -1.496741
1311876801.917145 0.502905 9.088214 -1.353054
1311876801.918143 0.502905 9.088214 -1.353054
1311876801.919647 0.502905 9.088214 -1.353054
1311876801.922885 0.227505 9.184006 -0.778306
1311876801.923870 0.227505 9.184006 -0.778306
1311876801.927013 0.706462 9.459406 -0.969888
1311876801.928024 0.706462 9.459406 -0.969888
1311876801.931790 0.227505 9.088214 -1.520689
1311876801.932750 0.227505 9.088214 -1.520689
1311876801.934046 0.227505 9.088214 -1.520689
1311876801.935140 0.227505 9.088214 -1.520689
1311876801.938533 0.119739 9.519276 -0.778306
1311876801.941771 0.119739 9.423484 -0.586723
1311876801.942882 0.119739 9.423484 -0.586723
1311876801.944056 0.119739 9.423484 -0.586723
1311876801.945158 0.119739 9.423484 -0.586723
1311876801.948280 -0.011974 9.471380 -1.161471
1311876801.949247 -0.011974 9.471380 -1.161471
1311876801.952750 0.598697 9.662963 -1.353054
1311876801.953891 0.598697 9.662963 -1.353054
1311876801.957169 -0.011974 9.375588 -0.969888
1311876801.958149 -0.011974 9.375588 -0.969888
1311876801.961768 -0.167635 9.471380 -0.490931
1311876801.962775 -0.167635 9.471380 -0.490931
1311876801.964018 -0.167635 9.471380 -0.490931
1311876801.964997 -0.167635 9.471380 -0.490931
1311876801.968250 0.227505 9.279797 -1.353054
1311876801.969644 0.227505 9.279797 -1.353054
1311876801.972907 0.323296 9.088214 -1.544637
1311876801.974046 0.323296 9.088214 -1.544637
1311876801.977304 0.119739 9.471380 -0.802253
1311876801.978154 0.119739 9.471380 -0.802253
1311876801.981775 0.227505 9.184006 -0.778306
1311876801.982765 0.227505 9.184006 -0.778306
1311876801.984016 0.227505 9.184006 -0.778306
1311876801.985014 0.227505 9.184006 -0.778306
1311876801.988265 0.227505 9.279797 -1.544637
1311876801.989665 0.227505 9.279797 -1.544637
1311876801.992927 0.407114 9.423484 -1.640429
1311876801.993911 0.407114 9.423484 -1.640429
1311876801.997034 0.227505 9.447432 -1.209367
1311876801.998156 0.227505 9.447432 -1.209367
1311876802.001737 0.371192 9.471380 -0.969888
1311876802.002785 0.371192 9.471380 -0.969888
1311876802.003909 0.371192 9.471380 -0.969888
1311876802.005067 0.371192 9.471380 -0.969888
1311876802.008728 0.407114 9.279797 -1.975699
1311876802.011768 0.227505 9.088214 -2.119386
1311876802.012896 0.227505 9.088214 -2.119386
1311876802.014119 0.227505 9.088214 -2.119386
1311876802.015119 0.227505 9.088214 -2.119386
1311876802.018640 0.227505 9.471380 -0.826201
1311876802.019664 0.227505 9.471380 -0.826201
1311876802.022895 0.035922 9.375588 -0.969888
1311876802.024056 0.035922 9.375588 -0.969888
1311876802.027159 0.119739 9.100188 -2.023594
1311876802.028145 0.119739 9.100188 -2.023594
1311876802.031782 0.407114 9.279797 -1.927803
1311876802.032894 0.407114 9.279797 -1.927803
1311876802.034008 0.407114 9.279797 -1.927803
1311876802.035136 0.407114 9.279797 -1.927803
1311876802.038814 -0.263426 9.459406 -0.778306
1311876802.041920 -0.263426 9.375588 -1.161471
1311876802.042921 -0.263426 9.375588 -1.161471
1311876802.044178 -0.263426 9.375588 -1.161471
1311876802.045150 -0.263426 9.375588 -1.161471
1311876802.048875 0.706462 9.184006 -2.310969
1311876802.050016 0.706462 9.184006 -2.310969
1311876802.053262 0.023948 9.459406 -1.736220
1311876802.054272 0.023948 9.459406 -1.736220
1311876802.058020 -0.347244 9.567171 -0.790279
1311876802.059022 -0.347244 9.567171 -0.790279
1311876802.062118 -0.059870 9.279797 -1.448846
1311876802.063118 -0.059870 9.279797 -1.448846
1311876802.066909 0.323296 9.076240 -2.310969
1311876802.067903 0.323296 9.076240 -2.310969
1311876802.069118 0.323296 9.076240 -2.310969
1311876802.070246 0.323296 9.076240 -2.310969
1311876802.074109 -0.059870 9.854546 -1.353054
1311876802.077141 -0.347244 9.519276 -0.778306
1311876802.078124 -0.347244 9.519276 -0.778306
1311876802.081769 -0.059870 9.279797 -1.496741
1311876802.082872 -0.059870 9.279797 -1.496741
1311876802.083998 -0.059870 9.279797 -1.496741
1311876802.085123 -0.059870 9.279797 -1.496741
1311876802.088169 0.802253 9.184006 -2.310969
1311876802.089654 0.802253 9.184006 -2.310969
1311876802.093013 -0.359218 9.662963 -1.161471
1311876802.094015 -0.359218 9.662963 -1.161471
1311876802.097775 0.227505 9.100188 -0.586723
1311876802.098776 0.227505 9.100188 -0.586723
1311876802.102156 0.502905 9.279797 -1.736220
1311876802.103139 0.502905 9.279797 -1.736220
1311876802.106899 0.455009 8.800840 -2.406760
1311876802.107888 0.455009 8.800840 -2.406760
1311876802.109240 0.455009 8.800840 -2.406760
1311876802.110276 0.455009 8.800840 -2.406760
1311876802.114143 0.227505 9.662963 -0.443035
1311876802.115255 0.227505 9.662963 -0.443035
1311876802.118949 0.227505 9.088214 -1.065680
1311876802.119904 0.227505 9.088214 -1.065680
1311876802.123657 0.455009 9.088214 -2.215177
1311876802.126774 0.993836 9.471380 -2.310969
1311876802.127770 0.993836 9.471380 -2.310969
1311876802.129027 0.993836 9.471380 -2.310969
1311876802.130028 0.993836 9.471380 -2.310969
1311876802.133764 -0.263426 9.495328 -1.065680
1311876802.134774 -0.263426 9.495328 -1.065680
1311876802.137905 0.407114 9.471380 -1.161471
1311876802.138896 0.407114 9.471380 -1.161471
1311876802.142268 0.802253 9.279797 -2.310969
1311876802.143281 0.802253 9.279797 -2.310969
1311876802.146898 0.455009 9.758754 -2.502552
1311876802.147887 0.455009 9.758754 -2.502552
1311876802.149115 0.455009 9.758754 -2.502552
1311876802.150138 0.455009 9.758754 -2.502552
1311876802.153878 0.227505 9.459406 -0.778306
1311876802.154991 0.227505 9.459406 -0.778306
1311876802.158695 0.227505 9.040318 -1.832012
1311876802.159630 0.227505 9.040318 -1.832012
1311876802.163089 1.089628 9.375588 -2.789926
1311876802.164026 1.089628 9.375588 -2.789926
1311876802.167773 0.323296 9.567171 -1.736220
1311876802.168907 0.323296 9.567171 -1.736220
1311876802.172173 0.023948 9.136110 -0.778306
1311876802.173258 0.023948 9.136110 -0.778306
1311876802.176780 0.407114 9.471380 -0.874097
1311876802.177755 0.407114 9.471380 -0.874097
1311876802.179007 0.407114 9.471380 -0.874097
1311876802.179989 0.407114 9.471380 -0.874097
1311876802.183778 0.886071 9.279797 -2.502552
1311876802.184891 0.886071 9.279797 -2.502552
1311876802.188275 0.119739 9.471380 -1.209367
1311876802.189269 0.119739 9.471380 -1.209367
1311876802.192806 0.407114 9.567171 -0.011974
1311876802.193931 0.407114 9.567171 -0.011974
1311876802.197144 -0.167635 9.136110 -0.778306
1311876802.198141 -0.167635 9.136110 -0.778306
1311876802.202018 0.993836 9.136110 -1.927803
1311876802.203015 0.993836 9.136110 -1.927803
1311876802.204268 0.993836 9.136110 -1.927803
1311876802.205269 0.993836 9.136110 -1.927803
1311876802.209153 0.227505 9.471380 -0.586723
1311876802.212084 -0.167635 9.184006 -0.203557
1311876802.214699 -0.167635 9.184006 -0.203557
1311876802.216745 0.323296 9.184006 -1.065680
1311876802.217907 0.323296 9.184006 -1.065680
1311876802.219146 0.323296 9.184006 -1.065680
1311876802.220113 0.323296 9.184006 -1.065680
1311876802.223778 0.790279 9.184006 -1.736220
1311876802.224950 0.790279 9.184006 -1.736220
1311876802.228282 -0.263426 9.279797 -0.586723
1311876802.229633 -0.263426 9.279797 -0.586723
1311876802.232906 0.431062 9.471380 -0.011974
1311876802.233864 0.431062 9.471380 -0.011974
1311876802.237629 0.023948 9.088214 -1.544637
1311876802.238744 0.023948 9.088214 -1.544637
1311876802.239741 0.023948 9.088214 -1.544637
1311876802.243194 0.802253 9.471380 -1.879907
1311876802.244280 0.802253 9.471380 -1.879907
1311876802.245273 0.802253 9.471380 -1.879907
1311876802.249126 0.023948 9.519276 -0.395140
1311876802.250016 0.023948 9.519276 -0.395140
1311876802.253142 -0.167635 9.279797 -0.443035
1311876802.254118 -0.167635 9.279797 -0.443035
1311876802.258019 0.598697 9.471380 -1.640429
1311876802.259000 0.598697 9.471380 -1.640429
1311876802.262081 0.790279 9.471380 -1.879907
1311876802.263009 0.790279 9.471380 -1.879907
1311876802.266750 -0.538827 9.471380 -0.778306
1311876802.267879 -0.538827 9.471380 -0.778306
1311876802.269289 -0.538827 9.471380 -0.778306
1311876802.272012 0.023948 9.758754 -0.490931
1311876802.273178 0.023948 9.758754 -0.490931
1311876802.277029 0.023948 9.279797 -2.119386
1311876802.277985 0.023948 9.279797 -2.119386
1311876802.279270 0.023948 9.279797 -2.119386
1311876802.280284 0.023948 9.279797 -2.119386
1311876802.284029 -0.167635 10.046129 -1.161471
1311876802.285139 -0.167635 10.046129 -1.161471
1311876802.288156 -0.443035 9.471380 -0.035922
1311876802.289193 -0.443035 9.471380 -0.035922
1311876802.292617 -0.742384 9.471380 -0.490931
1311876802.293770 -0.742384 9.471380 -0.490931
1311876802.297121 0.227505 9.567171 -2.023594
1311876802.298275 0.227505 9.567171 -2.023594
1311876802.301907 0.407114 9.471380 -1.592533
1311876802.303027 0.407114 9.471380 -1.592533
1311876802.304143 0.407114 9.471380 -1.592533
1311876802.305143 0.407114 9.471380 -1.592533
1311876802.309032 -0.359218 9.279797 0.562775
1311876802.310026 -0.359218 9.279797 0.562775
1311876802.313145 -0.311322 9.279797 -0.395140
1311876802.314134 -0.311322 9.279797 -0.395140
1311876802.318018 0.993836 8.800840 -1.736220
1311876802.319134 0.993836 8.800840 -1.736220
1311876802.322263 0.407114 9.136110 -0.826201
1311876802.323518 0.407114 9.136110 -0.826201
1311876802.326757 -0.359218 9.112162 0.466983
1311876802.327887 -0.359218 9.112162 0.466983
1311876802.329125 -0.359218 9.112162 0.466983
1311876802.330147 -0.359218 9.112162 0.466983
1311876802.333777 -0.167635 8.896631 -0.347244
1311876802.334765 -0.167635 8.896631 -0.347244
1311876802.338142 0.802253 9.471380 -1.736220
1311876802.339268 0.802253 9.471380 -1.736220
1311876802.342884 -0.347244 9.279797 -1.161471
1311876802.343935 -0.347244 9.279797 -1.161471
1311876802.346759 -0.347244 9.375588 0.000000
1311876802.347750 -0.347244 9.375588 0.000000
1311876802.349130 -0.347244 9.375588 0.000000
1311876802.351104 -0.347244 9.375588 0.000000
1311876802.353253 -0.011974 9.662963 -0.586723
1311876802.354272 -0.011974 9.662963 -0.586723
1311876802.358123 0.071844 9.375588 -2.023594
1311876802.359134 0.071844 9.375588 -2.023594
1311876802.362706 0.227505 9.471380 -1.832012
1311876802.363804 0.227505 9.471380 -1.832012
1311876802.364806 0.227505 9.471380 -1.832012
1311876802.368253 0.323296 9.279797 -0.203557
1311876802.369625 0.323296 9.279797 -0.203557
1311876802.373064 -0.347244 9.136110 -1.065680
1311876802.374017 -0.347244 9.136110 -1.065680
1311876802.377775 1.137524 9.279797 -2.310969
1311876802.378890 1.137524 9.279797 -2.310969
1311876802.382139 0.802253 9.471380 -1.927803
1311876802.383130 0.802253 9.471380 -1.927803
1311876802.386879 -0.167635 9.279797 -0.730410
1311876802.387859 -0.167635 9.279797 -0.730410
1311876802.389120 -0.167635 9.279797 -0.730410
1311876802.390276 -0.167635 9.279797 -0.730410
1311876802.393888 0.395140 9.459406 -1.520689
1311876802.394893 0.395140 9.459406 -1.520689
1311876802.398647 0.706462 9.088214 -2.502552
1311876802.399643 0.706462 9.088214 -2.502552
1311876802.400742 0.706462 9.088214 -2.502552
1311876802.404274 0.227505 9.842572 -1.736220
1311876802.405261 0.227505 9.842572 -1.736220
1311876802.409070 0.023948 9.279797 -0.682514
1311876802.410019 0.023948 9.279797 -0.682514
1311876802.413643 -0.359218 9.279797 -1.544637
1311876802.414638 -0.359218 9.279797 -1.544637
1311876802.415612 -0.359218 9.279797 -1.544637
1311876802.419113 1.089628 9.471380 -2.598343
1311876802.420327 1.089628 9.471380 -2.598343
1311876802.423897 0.011974 9.758754 -1.975699
1311876802.424898 0.011974 9.758754 -1.975699
1311876802.428650 -0.347244 9.040318 -0.586723
1311876802.429614 -0.347244 9.040318 -0.586723
1311876802.432894 0.598697 9.423484 -0.778306
1311876802.433882 0.598697 9.423484 -0.778306
1311876802.437706 0.502905 9.136110 -2.310969
1311876802.438651 0.502905 9.136110 -2.310969
1311876802.441889 0.227505 9.279797 -2.215177
1311876802.443028 0.227505 9.279797 -2.215177
1311876802.444306 0.227505 9.279797 -2.215177
1311876802.447906 0.455009 9.423484 -0.778306
1311876802.448909 0.455009 9.423484 -0.778306
1311876802.452173 0.023948 9.088214 -0.969888
1311876802.453138 0.023948 9.088214 -0.969888
1311876802.456892 0.455009 9.471380 -2.119386
1311876802.457854 0.455009 9.471380 -2.119386
1311876802.459105 0.455009 9.471380 -2.119386
1311876802.460105 0.455009 9.471380 -2.119386
1311876802.463772 0.431062 9.471380 -1.736220
1311876802.464791 0.431062 9.471380 -1.736220
1311876802.468141 0.119739 9.471380 -0.826201
1311876802.469262 0.119739 9.471380 -0.826201
1311876802.472914 0.227505 9.184006 -1.161471
1311876802.473906 0.227505 9.184006 -1.161471
1311876802.477282 0.802253 9.088214 -2.287021
1311876802.478299 0.802253 9.088214 -2.287021
1311876802.481894 0.706462 9.279797 -2.310969
1311876802.482888 0.706462 9.279797 -2.310969
1311876802.484016 0.706462 9.279797 -2.310969
1311876802.485266 0.706462 9.279797 -2.310969
1311876802.488953 0.371192 8.992423 -1.448846
1311876802.489894 0.371192 8.992423 -1.448846
1311876802.493140 0.407114 9.088214 -1.736220
1311876802.494146 0.407114 9.088214 -1.736220
1311876802.497917 0.886071 9.184006 -2.646239
1311876802.498873 0.886071 9.184006 -2.646239
1311876802.502023 0.395140 9.184006 -2.358865
1311876802.503165 0.395140 9.184006 -2.358865
1311876802.506923 0.323296 9.375588 -1.496741
1311876802.507924 0.323296 9.375588 -1.496741
1311876802.509167 0.323296 9.375588 -1.496741
1311876802.510144 0.323296 9.375588 -1.496741
1311876802.513646 0.395140 9.471380 -1.544637
1311876802.514616 0.395140 9.471380 -1.544637
1311876802.518017 0.598697 9.184006 -2.119386
1311876802.519106 0.598697 9.184006 -2.119386
1311876802.522763 0.802253 9.519276 -1.640429
1311876802.523766 0.802253 9.519276 -1.640429
1311876802.526999 0.419088 9.471380 -0.969888
1311876802.528110 0.419088 9.471380 -0.969888
1311876802.531642 0.023948 9.279797 -1.257263
1311876802.532747 0.023948 9.279797 -1.257263
1311876802.534011 0.023948 9.279797 -1.257263
1311876802.534986 0.023948 9.279797 -1.257263
1311876802.538133 0.814227 9.471380 -1.903855
1311876802.539258 0.814227 9.471380 -1.903855
1311876802.542764 0.323296 9.136110 -1.927803
1311876802.543895 0.323296 9.136110 -1.927803
1311876802.547028 0.011974 9.447432 -1.353054
1311876802.548138 0.011974 9.447432 -1.353054
1311876802.551763 0.407114 9.279797 -1.161471
1311876802.552756 0.407114 9.279797 -1.161471
1311876802.554013 0.407114 9.279797 -1.161471
1311876802.555011 0.407114 9.279797 -1.161471
1311876802.558624 0.119739 9.279797 -2.298995
1311876802.559640 0.119739 9.279797 -2.298995
1311876802.563005 0.119739 9.495328 -1.544637
1311876802.563987 0.119739 9.495328 -1.544637
1311876802.567742 0.371192 9.567171 -0.969888
1311876802.568745 0.371192 9.567171 -0.969888
1311876802.572026 -0.347244 9.279797 -1.353054
1311876802.573131 -0.347244 9.279797 -1.353054
1311876802.574686 -0.347244 9.279797 -1.353054
1311876802.577641 0.419088 9.471380 -1.832012
1311876802.578785 0.419088 9.471380 -1.832012
1311876802.579763 0.419088 9.471380 -1.832012
1311876802.583011 0.407114 9.279797 -1.353054
1311876802.584008 0.407114 9.279797 -1.353054
1311876802.587746 -0.347244 9.423484 -1.161471
1311876802.588735 -0.347244 9.423484 -1.161471
1311876802.592018 0.395140 9.279797 -1.592533
1311876802.592989 0.395140 9.279797 -1.592533
1311876802.596817 0.598697 9.279797 -2.119386
1311876802.597768 0.598697 9.279797 -2.119386
1311876802.599023 0.598697 9.279797 -2.119386
1311876802.600043 0.598697 9.279797 -2.119386
1311876802.603549 -0.167635 9.471380 -1.161471
1311876802.606742 0.227505 9.483354 -1.161471
1311876802.607883 0.227505 9.483354 -1.161471
1311876802.609119 0.227505 9.483354 -1.161471
1311876802.610134 0.227505 9.483354 -1.161471
1311876802.613489 0.023948 9.423484 -1.927803
1311876802.616766 0.371192 9.483354 -2.310969
1311876802.617795 0.371192 9.483354 -2.310969
1311876802.619006 0.371192 9.483354 -2.310969
1311876802.620129 0.371192 9.483354 -2.310969
1311876802.623939 0.047896 9.423484 -1.448846
1311876802.624897 0.047896 9.423484 -1.448846
1311876802.628023 0.011974 9.471380 -1.161471
1311876802.629135 0.011974 9.471380 -1.161471
1311876802.632771 0.119739 9.423484 -1.736220
1311876802.633755 0.119739 9.423484 -1.736220
1311876802.637370 0.598697 9.184006 -1.927803
1311876802.638624 0.598697 9.184006 -1.927803
1311876802.641881 0.023948 9.471380 -1.353054
1311876802.642989 0.023948 9.471380 -1.353054
1311876802.644112 0.023948 9.471380 -1.353054
1311876802.645114 0.023948 9.471380 -1.353054
1311876802.648761 0.071844 9.088214 -1.161471
1311876802.649740 0.071844 9.088214 -1.161471
1311876802.653117 0.227505 9.184006 -1.927803
1311876802.654141 0.227505 9.184006 -1.927803
1311876802.657922 0.455009 9.495328 -1.640429
1311876802.658892 0.455009 9.495328 -1.640429
1311876802.659904 0.455009 9.495328 -1.640429
1311876802.663151 0.023948 9.471380 -0.874097
1311876802.664261 0.023948 9.471380 -0.874097
1311876802.667899 -0.059870 9.423484 -1.161471
1311876802.668929 -0.059870 9.423484 -1.161471
1311876802.672185 0.227505 9.375588 -1.592533
1311876802.673145 0.227505 9.375588 -1.592533
1311876802.676813 0.227505 9.375588 -1.640429
1311876802.677809 0.227505 9.375588 -1.640429
1311876802.679013 0.227505 9.375588 -1.640429
1311876802.680001 0.227505 9.375588 -1.640429
1311876802.683259 -0.011974 9.471380 -0.969888
1311876802.684254 -0.011974 9.471380 -0.969888
1311876802.687771 0.023948 9.279797 -1.257263
1311876802.688877 0.023948 9.279797 -1.257263
1311876802.692015 0.227505 9.100188 -1.736220
1311876802.693141 0.227505 9.100188 -1.736220
1311876802.696751 0.395140 9.495328 -1.496741
1311876802.697734 0.395140 9.495328 -1.496741
1311876802.698879 0.395140 9.495328 -1.496741
1311876802.700010 0.395140 9.495328 -1.496741
1311876802.703262 -0.311322 9.279797 -1.065680
1311876802.706387 -0.311322 9.279797 -1.065680
1311876802.707771 0.023948 9.184006 -1.448846
1311876802.709011 0.023948 9.184006 -1.448846
1311876802.712273 0.598697 9.519276 -1.736220
1311876802.713141 0.598697 9.519276 -1.736220
1311876802.714146 0.598697 9.519276 -1.736220
1311876802.717874 -0.263426 9.279797 -1.353054
1311876802.718889 -0.263426 9.279797 -1.353054
1311876802.722133 0.047896 9.471380 -0.826201
1311876802.723133 0.047896 9.471380 -0.826201
1311876802.726758 0.407114 9.447432 -1.353054
1311876802.727759 0.407114 9.447432 -1.353054
1311876802.728993 0.407114 9.447432 -1.353054
1311876802.729988 0.407114 9.447432 -1.353054
1311876802.733676 0.119739 9.279797 -2.119386
1311876802.734810 0.119739 9.279797 -2.119386
1311876802.738128 0.323296 9.471380 -1.353054
1311876802.739113 0.323296 9.471380 -1.353054
1311876802.742662 0.502905 9.088214 -1.161471
1311876802.743634 0.502905 9.088214 -1.161471
1311876802.744733 0.502905 9.088214 -1.161471
1311876802.748149 0.071844 9.136110 -2.023594
1311876802.749140 0.071844 9.136110 -2.023594
1311876802.752748 1.137524 9.279797 -2.023594
1311876802.753884 1.137524 9.279797 -2.023594
1311876802.757245 0.371192 9.088214 -1.257263
1311876802.758235 0.371192 9.088214 -1.257263
1311876802.761750 0.023948 9.112162 -0.874097
1311876802.762750 0.023948 9.112162 -0.874097
1311876802.764009 0.023948 9.112162 -0.874097
1311876802.765127 0.023948 9.112162 -0.874097
1311876802.768315 0.802253 9.184006 -1.592533
1311876802.769989 0.802253 9.184006 -1.592533
1311876802.772917 0.323296 9.279797 -1.640429
1311876802.773876 0.323296 9.279797 -1.640429
1311876802.777164 0.227505 9.495328 -0.969888
1311876802.778142 0.227505 9.495328 -0.969888
1311876802.781767 0.455009 9.471380 -0.969888
1311876802.782637 0.455009 9.471380 -0.969888
1311876802.784014 0.455009 9.471380 -0.969888
1311876802.785016 0.455009 9.471380 -0.969888
1311876802.788136 0.323296 9.471380 -1.568585
1311876802.789242 0.323296 9.471380 -1.568585
1311876802.792760 0.598697 9.662963 -1.544637
1311876802.793789 0.598697 9.662963 -1.544637
1311876802.797019 0.395140 9.279797 -1.173445
1311876802.798156 0.395140 9.279797 -1.173445
1311876802.801790 0.119739 9.375588 -1.544637
1311876802.802756 0.119739 9.375588 -1.544637
1311876802.803888 0.119739 9.375588 -1.544637
1311876802.805143 0.119739 9.375588 -1.544637
1311876802.808133 0.886071 9.279797 -1.927803
1311876802.809139 0.886071 9.279797 -1.927803
1311876802.812772 0.407114 9.279797 -1.736220
1311876802.813793 0.407114 9.279797 -1.736220
1311876802.817142 0.227505 9.279797 -1.149497
1311876802.818139 0.227505 9.279797 -1.149497
1311876802.821892 0.502905 9.423484 -1.544637
1311876802.822731 0.502905 9.423484 -1.544637
1311876802.823980 0.502905 9.423484 -1.544637
1311876802.825114 0.502905 9.423484 -1.544637
1311876802.828240 0.407114 9.279797 -2.023594
1311876802.829135 0.407114 9.279797 -2.023594
1311876802.832762 0.455009 9.471380 -1.532663
1311876802.833878 0.455009 9.471380 -1.532663
1311876802.837160 0.455009 9.279797 -0.802253
1311876802.838106 0.455009 9.279797 -0.802253
1311876802.841853 -0.167635 9.471380 -1.448846
1311876802.842882 -0.167635 9.471380 -1.448846
1311876802.844135 -0.167635 9.471380 -1.448846
1311876802.845136 -0.167635 9.471380 -1.448846
1311876802.848871 0.754358 9.447432 -2.023594
1311876802.849881 0.754358 9.447432 -2.023594
1311876802.853259 0.323296 9.471380 -1.161471
1311876802.854231 0.323296 9.471380 -1.161471
1311876802.857819 0.035922 9.567171 -0.778306
1311876802.858862 0.035922 9.567171 -0.778306
1311876802.862146 0.323296 9.519276 -1.448846
1311876802.863124 0.323296 9.519276 -1.448846
1311876802.866877 0.598697 9.279797 -2.310969
1311876802.868003 0.598697 9.279797 -2.310969
1311876802.869248 0.598697 9.279797 -2.310969
1311876802.870165 0.598697 9.279797 -2.310969
1311876802.873981 0.419088 9.758754 -1.257263
1311876802.874969 0.419088 9.758754 -1.257263
1311876802.878107 0.011974 9.375588 -0.969888
1311876802.879101 0.011974 9.375588 -0.969888
1311876802.882874 0.119739 9.495328 -1.927803
1311876802.883870 0.119739 9.495328 -1.927803
1311876802.887253 1.173445 9.375588 -2.885718
1311876802.888166 1.173445 9.375588 -2.885718
1311876802.891757 0.227505 9.375588 -2.215177
1311876802.893018 0.227505 9.375588 -2.215177
1311876802.894147 0.227505 9.375588 -2.215177
1311876802.895148 0.227505 9.375588 -2.215177
1311876802.898992 0.119739 9.184006 -0.490931
1311876802.900142 0.119739 9.184006 -0.490931
1311876802.903623 0.119739 9.423484 -1.640429
1311876802.904603 0.119739 9.423484 -1.640429
1311876802.908006 0.886071 9.100188 -2.119386
1311876802.908998 0.886071 9.100188 -2.119386
1311876802.912749 0.119739 9.471380 -0.826201
1311876802.913755 0.119739 9.471380 -0.826201
1311876802.917024 -0.371192 9.279797 0.323296
1311876802.918100 -0.371192 9.279797 0.323296
1311876802.921772 -0.263426 9.279797 -0.107765
1311876802.922745 -0.263426 9.279797 -0.107765
1311876802.924000 -0.263426 9.279797 -0.107765
1311876802.925122 -0.263426 9.279797 -0.107765
1311876802.928648 0.802253 9.471380 -1.544637
1311876802.929636 0.802253 9.471380 -1.544637
1311876802.933161 -0.538827 8.992423 -0.778306
1311876802.934008 -0.538827 8.992423 -0.778306
1311876802.937739 0.023948 9.375588 0.083818
1311876802.938717 0.023948 9.375588 0.083818
1311876802.941983 0.407114 9.088214 -0.203557
1311876802.942997 0.407114 9.088214 -0.203557
1311876802.946887 0.119739 8.992423 -1.353054
1311876802.947881 0.119739 8.992423 -1.353054
1311876802.949117 0.119739 8.992423 -1.353054
1311876802.950116 0.119739 8.992423 -1.353054
1311876802.953876 0.071844 9.088214 -0.490931
1311876802.954998 0.071844 9.088214 -0.490931
1311876802.958105 0.023948 9.064266 0.035922
1311876802.959109 0.023948 9.064266 0.035922
1311876802.962654 -0.059870 9.088214 -0.059870
1311876802.963750 -0.059870 9.088214 -0.059870
1311876802.964758 -0.059870 9.088214 -0.059870
1311876802.968248 0.802253 9.184006 -1.161471
1311876802.969235 0.802253 9.184006 -1.161471
1311876802.972860 0.023948 9.279797 -0.969888
1311876802.973753 0.023948 9.279797 -0.969888
1311876802.977148 -0.311322 9.279797 -0.347244
1311876802.978122 -0.311322 9.279797 -0.347244
1311876802.981773 0.227505 9.662963 -0.395140
1311876802.982759 0.227505 9.662963 -0.395140
1311876802.984006 0.227505 9.662963 -0.395140
1311876802.985132 0.227505 9.662963 -0.395140
1311876802.988626 0.502905 9.662963 -1.927803
1311876802.989749 0.502905 9.662963 -1.927803
1311876802.993002 0.323296 9.662963 -1.257263
1311876802.993995 0.323296 9.662963 -1.257263
1311876802.997636 0.119739 9.471380 -0.682514
1311876802.998749 0.119739 9.471380 -0.682514
1311876803.002049 0.023948 9.423484 -0.778306
1311876803.002983 0.023948 9.423484 -0.778306
1311876803.004143 0.023948 9.423484 -0.778306
1311876803.008041 0.802253 9.088214 -2.119386
1311876803.009081 0.802253 9.088214 -2.119386
1311876803.012001 0.598697 9.040318 -1.939777
1311876803.013062 0.598697 9.040318 -1.939777
1311876803.016858 0.706462 9.471380 -0.730410
1311876803.017862 0.706462 9.471380 -0.730410
1311876803.019156 0.706462 9.471380 -0.730410
1311876803.020800 0.706462 9.471380 -0.730410
1311876803.023875 0.023948 9.279797 -1.544637
1311876803.024983 0.023948 9.279797 -1.544637
1311876803.028265 0.802253 8.896631 -2.406760
1311876803.029612 0.802253 8.896631 -2.406760
1311876803.033021 0.802253 9.471380 -1.927803
1311876803.034135 0.802253 9.471380 -1.927803
1311876803.037295 0.023948 9.471380 -1.065680
1311876803.038764 0.023948 9.471380 -1.065680
1311876803.039615 0.023948 9.471380 -1.065680
1311876803.042994 -0.167635 9.184006 -1.448846
1311876803.044010 -0.167635 9.184006 -1.448846
1311876803.047890 0.993836 9.567171 -2.502552
1311876803.048726 0.993836 9.567171 -2.502552
1311876803.052008 0.119739 9.519276 -2.310969
1311876803.053006 0.119739 9.519276 -2.310969
1311876803.056994 -0.263426 9.279797 -0.682514
1311876803.057987 -0.263426 9.279797 -0.682514
1311876803.060283 -0.263426 9.279797 -0.682514
1311876803.062641 0.407114 9.279797 -0.395140
1311876803.063645 0.407114 9.279797 -0.395140
1311876803.067210 0.371192 9.064266 -1.832012
1311876803.068325 0.371192 9.064266 -1.832012
1311876803.071759 0.993836 9.471380 -1.544637
1311876803.072864 0.993836 9.471380 -1.544637
1311876803.074118 0.993836 9.471380 -1.544637
1311876803.075112 0.993836 9.471380 -1.544637
1311876803.078110 0.395140 8.992423 -0.011974
1311876803.079103 0.395140 8.992423 -0.011974
1311876803.082734 0.227505 9.136110 -0.395140
1311876803.083718 0.227505 9.136110 -0.395140
1311876803.087266 0.802253 9.088214 -1.544637
1311876803.088293 0.802253 9.088214 -1.544637
1311876803.091774 0.802253 9.471380 -1.832012
1311876803.092844 0.802253 9.471380 -1.832012
1311876803.094008 0.802253 9.471380 -1.832012
1311876803.094999 0.802253 9.471380 -1.832012
1311876803.098619 0.407114 9.471380 -0.730410
1311876803.099614 0.407114 9.471380 -0.730410
1311876803.103006 0.455009 9.375588 -0.969888
1311876803.103863 0.455009 9.375588 -0.969888
1311876803.107140 0.023948 9.279797 -2.310969
1311876803.108299 0.023948 9.279797 -2.310969
1311876803.111906 0.706462 9.519276 -2.406760
1311876803.112878 0.706462 9.519276 -2.406760
1311876803.113997 0.706462 9.519276 -2.406760
1311876803.115121 0.706462 9.519276 -2.406760
1311876803.118647 0.023948 9.519276 -1.556611
1311876803.121762 -0.011974 9.471380 -1.448846
1311876803.122899 -0.011974 9.471380 -1.448846
1311876803.124011 -0.011974 9.471380 -1.448846
1311876803.125145 -0.011974 9.471380 -1.448846
1311876803.128134 0.802253 9.279797 -2.310969
1311876803.129497 0.802253 9.279797 -2.310969
1311876803.132877 0.502905 9.279797 -2.322943
1311876803.133873 0.502905 9.279797 -2.322943
1311876803.137260 0.227505 9.495328 -1.520689
1311876803.138248 0.227505 9.495328 -1.520689
1311876803.141760 0.407114 9.136110 -0.874097
1311876803.142935 0.407114 9.136110 -0.874097
1311876803.144010 0.407114 9.136110 -0.874097
1311876803.145102 0.407114 9.136110 -0.874097
1311876803.148876 0.407114 9.279797 -2.023594
1311876803.149878 0.407114 9.279797 -2.023594
1311876803.153262 0.598697 9.519276 -1.736220
1311876803.154231 0.598697 9.519276 -1.736220
1311876803.158047 0.023948 9.136110 -0.826201
1311876803.159138 0.023948 9.136110 -0.826201
1311876803.160020 0.023948 9.136110 -0.826201
1311876803.163013 0.227505 9.483354 -0.790279
1311876803.164180 0.227505 9.483354 -0.790279
1311876803.167973 0.431062 9.471380 -1.544637
1311876803.168906 0.431062 9.471380 -1.544637
1311876803.172154 0.407114 9.471380 -1.903855
1311876803.173127 0.407114 9.471380 -1.903855
1311876803.176754 0.119739 9.471380 -1.161471
1311876803.177757 0.119739 9.471380 -1.161471
1311876803.178994 0.119739 9.471380 -1.161471
1311876803.180001 0.119739 9.471380 -1.161471
1311876803.183003 0.227505 9.459406 -1.161471
1311876803.184131 0.227505 9.459406 -1.161471
1311876803.187881 0.323296 9.279797 -2.215177
1311876803.189003 0.323296 9.279797 -2.215177
1311876803.192006 0.802253 9.471380 -2.023594
1311876803.193012 0.802253 9.471380 -2.023594
1311876803.196748 0.323296 9.184006 -1.353054
1311876803.197737 0.323296 9.184006 -1.353054
1311876803.198974 0.323296 9.184006 -1.353054
1311876803.199995 0.323296 9.184006 -1.353054
1311876803.203534 0.227505 9.088214 -1.173445
1311876803.204624 0.227505 9.088214 -1.173445
1311876803.207875 0.802253 9.279797 -1.927803
1311876803.208995 0.802253 9.279797 -1.927803
1311876803.212011 0.371192 9.088214 -2.119386
1311876803.213437 0.371192 9.088214 -2.119386
1311876803.216741 0.227505 9.375588 -1.257263
1311876803.217735 0.227505 9.375588 -1.257263
1311876803.218966 0.227505 9.375588 -1.257263
1311876803.220088 0.227505 9.375588 -1.257263
1311876803.223635 0.023948 9.184006 -1.257263
1311876803.224747 0.023948 9.184006 -1.257263
1311876803.227993 0.023948 9.279797 -2.119386
1311876803.229105 0.023948 9.279797 -2.119386
1311876803.234964 0.502905 9.758754 -1.927803
1311876803.236750 0.227505 9.567171 -1.257263
1311876803.237739 0.227505 9.567171 -1.257263
1311876803.239013 0.227505 9.567171 -1.257263
1311876803.240010 0.227505 9.567171 -1.257263
1311876803.243134 0.023948 9.471380 -0.969888
1311876803.244160 0.023948 9.471380 -0.969888
1311876803.247861 0.706462 9.471380 -1.544637
1311876803.248871 0.706462 9.471380 -1.544637
1311876803.252033 0.407114 9.184006 -1.640429
1311876803.253181 0.407114 9.184006 -1.640429
1311876803.256603 0.023948 9.088214 -1.353054
1311876803.257779 0.023948 9.088214 -1.353054
1311876803.258968 0.023948 9.088214 -1.353054
1311876803.259969 0.023948 9.088214 -1.353054
1311876803.263126 0.407114 9.088214 -0.969888
1311876803.264097 0.407114 9.088214 -0.969888
1311876803.267858 0.407114 9.040318 -1.736220
1311876803.268972 0.407114 9.040318 -1.736220
1311876803.272012 0.598697 9.423484 -1.736220
1311876803.273000 0.598697 9.423484 -1.736220
1311876803.276773 0.227505 9.184006 -1.209367
1311876803.277728 0.227505 9.184006 -1.209367
1311876803.278877 0.227505 9.184006 -1.209367
1311876803.280023 0.227505 9.184006 -1.209367
1311876803.283003 -0.059870 9.447432 -1.161471
1311876803.284118 -0.059870 9.447432 -1.161471
1311876803.287887 0.598697 9.842572 -1.640429
1311876803.288897 0.598697 9.842572 -1.640429
1311876803.292148 0.023948 9.423484 -1.915829
1311876803.293176 0.023948 9.423484 -1.915829
1311876803.296750 -0.011974 9.495328 -1.161471
1311876803.297744 -0.011974 9.495328 -1.161471
1311876803.298990 -0.011974 9.495328 -1.161471
1311876803.300117 -0.011974 9.495328 -1.161471
1311876803.304303 0.227505 9.279797 -1.257263
1311876803.307045 0.227505 9.184006 -1.736220
1311876803.308127 0.227505 9.184006 -1.736220
1311876803.309108 0.227505 9.184006 -1.736220
1311876803.312760 0.706462 9.279797 -1.353054
1311876803.314015 0.706462 9.279797 -1.353054
1311876803.317046 0.407114 9.136110 -0.969888
1311876803.318005 0.407114 9.136110 -0.969888
1311876803.319243 0.407114 9.136110 -0.969888
1311876803.320339 0.407114 9.136110 -0.969888
1311876803.323884 0.407114 9.423484 -1.353054
1311876803.324975 0.407114 9.423484 -1.353054
1311876803.328111 0.802253 9.447432 -1.927803
1311876803.329214 0.802253 9.447432 -1.927803
1311876803.332869 0.227505 9.184006 -1.532663
1311876803.333875 0.227505 9.184006 -1.532663
1311876803.337133 0.023948 9.459406 -1.113576
1311876803.338140 0.023948 9.459406 -1.113576
1311876803.341757 0.407114 9.471380 -1.161471
1311876803.342762 0.407114 9.471380 -1.161471
1311876803.344003 0.407114 9.471380 -1.161471
1311876803.345005 0.407114 9.471380 -1.161471
1311876803.348140 0.407114 9.279797 -1.927803
1311876803.349629 0.407114 9.279797 -1.927803
1311876803.352995 0.323296 9.279797 -1.544637
1311876803.354003 0.323296 9.279797 -1.544637
1311876803.357182 0.119739 9.279797 -1.137524
1311876803.358101 0.119739 9.279797 -1.137524
1311876803.361748 0.023948 9.375588 -1.520689
1311876803.362729 0.023948 9.375588 -1.520689
1311876803.364043 0.023948 9.375588 -1.520689
1311876803.365009 0.023948 9.375588 -1.520689
1311876803.368284 0.706462 9.279797 -2.119386
1311876803.369627 0.706462 9.279797 -2.119386
1311876803.372936 0.323296 9.375588 -1.520689
1311876803.374012 0.323296 9.375588 -1.520689
1311876803.377242 0.371192 9.375588 -0.778306
1311876803.378115 0.371192 9.375588 -0.778306
1311876803.381774 0.407114 9.447432 -0.802253
1311876803.382744 0.407114 9.447432 -0.802253
1311876803.383878 0.407114 9.447432 -0.802253
1311876803.385013 0.407114 9.447432 -0.802253
1311876803.388640 0.802253 9.088214 -1.568585
1311876803.391867 0.706462 9.567171 -1.113576
1311876803.392856 0.706462 9.567171 -1.113576
1311876803.394109 0.706462 9.567171 -1.113576
1311876803.395108 0.706462 9.567171 -1.113576
1311876803.398736 0.227505 9.279797 -0.730410
1311876803.399755 0.227505 9.279797 -0.730410
1311876803.403116 0.455009 9.375588 -1.520689
1311876803.404124 0.455009 9.375588 -1.520689
1311876803.407728 1.173445 9.279797 -2.119386
1311876803.408839 1.173445 9.279797 -2.119386
1311876803.412007 0.407114 9.471380 -1.927803
1311876803.413000 0.407114 9.471380 -1.927803
1311876803.416743 0.119739 9.519276 -1.257263
1311876803.417843 0.119739 9.519276 -1.257263
1311876803.418965 0.119739 9.519276 -1.257263
1311876803.419999 0.119739 9.519276 -1.257263
1311876803.423635 0.407114 9.279797 -2.263073
1311876803.424596 0.407114 9.279797 -2.263073
1311876803.425756 0.407114 9.279797 -2.263073
1311876803.429186 0.802253 9.112162 -2.885718
1311876803.430114 0.802253 9.112162 -2.885718
1311876803.433908 0.227505 9.279797 -1.927803
1311876803.435002 0.227505 9.279797 -1.927803
1311876803.438127 0.023948 8.896631 -1.257263
1311876803.439255 0.023948 8.896631 -1.257263
1311876803.442857 0.419088 9.375588 -1.640429
1311876803.443843 0.419088 9.375588 -1.640429
1311876803.447095 0.993836 9.279797 -2.406760
1311876803.448117 0.993836 9.279797 -2.406760
1311876803.451747 0.023948 9.279797 -1.736220
1311876803.452868 0.023948 9.279797 -1.736220
1311876803.454131 0.023948 9.279797 -1.736220
1311876803.455129 0.023948 9.279797 -1.736220
1311876803.458878 0.407114 9.471380 -0.395140
1311876803.459866 0.407114 9.471380 -0.395140
1311876803.463158 0.023948 9.375588 -1.161471
1311876803.464247 0.023948 9.375588 -1.161471
1311876803.467856 0.598697 9.567171 -1.832012
1311876803.468992 0.598697 9.567171 -1.832012
1311876803.472126 0.323296 9.758754 -1.113576
1311876803.473225 0.323296 9.758754 -1.113576
1311876803.476843 0.023948 9.471380 -0.203557
1311876803.477837 0.023948 9.471380 -0.203557
1311876803.479085 0.023948 9.471380 -0.203557
1311876803.480085 0.023948 9.471380 -0.203557
1311876803.483882 0.119739 9.519276 -0.778306
1311876803.484839 0.119739 9.519276 -0.778306
1311876803.488266 0.802253 9.471380 -1.544637
1311876803.489256 0.802253 9.471380 -1.544637
1311876803.492876 -0.167635 9.088214 -1.137524
1311876803.493876 -0.167635 9.088214 -1.137524
1311876803.497107 0.035922 9.184006 -0.443035
1311876803.498094 0.035922 9.184006 -0.443035
1311876803.501744 0.407114 9.279797 -0.969888
1311876803.502873 0.407114 9.279797 -0.969888
1311876803.504128 0.407114 9.279797 -0.969888
1311876803.505117 0.407114 9.279797 -0.969888
1311876803.508881 0.323296 9.088214 -1.879907
1311876803.509872 0.323296 9.088214 -1.879907
1311876803.513308 0.323296 9.279797 -1.161471
1311876803.514591 0.323296 9.279797 -1.161471
1311876803.518005 0.407114 9.088214 -0.730410
1311876803.519013 0.407114 9.088214 -0.730410
1311876803.519964 0.407114 9.088214 -0.730410
1311876803.523718 0.023948 9.471380 -1.353054
1311876803.524841 0.023948 9.471380 -1.353054
1311876803.528122 0.886071 9.136110 -2.023594
1311876803.529114 0.886071 9.136110 -2.023594
1311876803.532731 0.227505 9.279797 -1.544637
1311876803.533848 0.227505 9.279797 -1.544637
1311876803.537153 -0.059870 9.279797 -0.874097
1311876803.538136 -0.059870 9.279797 -0.874097
1311876803.541757 0.371192 9.375588 -1.161471
1311876803.542736 0.371192 9.375588 -1.161471
1311876803.544015 0.371192 9.375588 -1.161471
1311876803.545171 0.371192 9.375588 -1.161471
1311876803.548141 0.395140 9.184006 -1.832012
1311876803.549600 0.395140 9.184006 -1.832012
1311876803.552998 0.119739 9.662963 -1.161471
1311876803.553989 0.119739 9.662963 -1.161471
1311876803.556992 0.119739 9.112162 -0.778306
1311876803.558114 0.119739 9.112162 -0.778306
1311876803.561741 0.023948 9.471380 -1.161471
1311876803.562738 0.023948 9.471380 -1.161471
1311876803.563986 0.023948 9.471380 -1.161471
1311876803.564980 0.023948 9.471380 -1.161471
1311876803.568232 0.598697 9.567171 -1.736220
1311876803.569219 0.598697 9.567171 -1.736220
1311876803.572863 0.071844 9.279797 -1.161471
1311876803.573895 0.071844 9.279797 -1.161471
1311876803.577121 0.023948 9.662963 -0.682514
1311876803.578110 0.023948 9.662963 -0.682514
1311876803.581746 0.119739 9.471380 -0.969888
1311876803.582732 0.119739 9.471380 -0.969888
1311876803.583983 0.119739 9.471380 -0.969888
1311876803.584986 0.119739 9.471380 -0.969888
1311876803.588268 0.431062 9.279797 -1.975699
1311876803.589613 0.431062 9.279797 -1.975699
1311876803.592999 0.323296 9.423484 -1.353054
1311876803.593995 0.323296 9.423484 -1.353054
1311876803.597125 -0.263426 9.279797 -0.778306
1311876803.598126 -0.263426 9.279797 -0.778306
1311876803.601755 0.023948 9.088214 -1.257263
1311876803.602867 0.023948 9.088214 -1.257263
1311876803.604000 0.023948 9.088214 -1.257263
1311876803.605124 0.023948 9.088214 -1.257263
1311876803.608125 0.802253 9.279797 -2.023594
1311876803.609626 0.802253 9.279797 -2.023594
1311876803.612856 -0.395140 9.088214 -1.544637
1311876803.613846 -0.395140 9.088214 -1.544637
1311876803.617246 0.023948 9.471380 -0.490931
1311876803.618222 0.023948 9.471380 -0.490931
1311876803.621926 0.371192 9.495328 -0.754358
1311876803.622863 0.371192 9.495328 -0.754358
1311876803.624102 0.371192 9.495328 -0.754358
1311876803.625108 0.371192 9.495328 -0.754358
1311876803.628859 0.455009 9.471380 -1.592533
1311876803.629924 0.455009 9.471380 -1.592533
1311876803.633647 0.598697 9.854546 -0.826201
1311876803.636875 0.323296 9.519276 -0.203557
1311876803.637876 0.323296 9.519276 -0.203557
1311876803.639091 0.323296 9.519276 -0.203557
1311876803.640120 0.323296 9.519276 -0.203557
1311876803.644009 0.502905 9.279797 -1.592533
1311876803.645001 0.502905 9.279797 -1.592533
1311876803.648127 1.269237 9.184006 -2.310969
1311876803.649235 1.269237 9.184006 -2.310969
1311876803.652975 0.119739 8.896631 -1.592533
1311876803.653989 0.119739 8.896631 -1.592533
1311876803.657107 -0.167635 9.136110 -0.969888
1311876803.658249 -0.167635 9.136110 -0.969888
1311876803.661892 0.502905 9.279797 -1.927803
1311876803.662851 0.502905 9.279797 -1.927803
1311876803.664118 0.502905 9.279797 -1.927803
1311876803.665087 0.502905 9.279797 -1.927803
1311876803.669047 0.227505 9.471380 -3.173092
1311876803.672139 -0.059870 9.854546 -2.502552
1311876803.673252 -0.059870 9.854546 -2.502552
1311876803.676962 -0.059870 9.279797 -1.209367
1311876803.677863 -0.059870 9.279797 -1.209367
1311876803.679154 -0.059870 9.279797 -1.209367
1311876803.680133 -0.059870 9.279797 -1.209367
1311876803.683869 -0.059870 9.854546 -1.975699
1311876803.684866 -0.059870 9.854546 -1.975699
1311876803.688248 0.802253 9.519276 -2.789926
1311876803.689625 0.802253 9.519276 -2.789926
1311876803.692995 0.023948 9.136110 -1.544637
1311876803.693997 0.023948 9.136110 -1.544637
1311876803.697892 0.323296 9.100188 -0.395140
1311876803.698867 0.323296 9.100188 -0.395140
1311876803.702214 0.598697 9.088214 -0.395140
1311876803.703228 0.598697 9.088214 -0.395140
1311876803.704100 0.598697 9.088214 -0.395140
1311876803.707991 0.838175 8.896631 -1.736220
1311876803.709386 0.838175 8.896631 -1.736220
1311876803.713138 0.455009 9.279797 -1.149497
1311876803.713987 0.455009 9.279797 -1.149497
1311876803.715017 0.455009 9.279797 -1.149497
1311876803.719394 0.119739 9.088214 -0.371192
1311876803.721792 0.023948 9.184006 -0.443035
1311876803.722914 0.023948 9.184006 -0.443035
1311876803.723982 0.023948 9.184006 -0.443035
1311876803.724979 0.023948 9.184006 -0.443035
1311876803.730869 0.790279 9.662963 -2.215177
1311876803.731860 0.011974 9.662963 -2.023594
1311876803.733210 0.011974 9.662963 -2.023594
1311876803.734249 0.011974 9.662963 -2.023594
1311876803.735241 0.011974 9.662963 -2.023594
1311876803.738863 0.023948 9.662963 -1.161471
1311876803.739986 0.023948 9.662963 -1.161471
1311876803.743134 0.047896 9.519276 -1.939777
1311876803.744261 0.047896 9.519276 -1.939777
1311876803.747987 0.227505 9.279797 -2.885718
1311876803.749104 0.227505 9.279797 -2.885718
1311876803.752728 0.071844 9.471380 -2.502552
1311876803.753609 0.071844 9.471380 -2.502552
1311876803.757116 0.023948 9.279797 -1.544637
1311876803.757984 0.023948 9.279797 -1.544637
1311876803.761620 -0.059870 9.088214 -1.544637
1311876803.762599 -0.059870 9.088214 -1.544637
1311876803.763868 -0.059870 9.088214 -1.544637
1311876803.764865 -0.059870 9.088214 -1.544637
1311876803.768625 0.993836 9.279797 -2.646239
1311876803.769727 0.993836 9.279797 -2.646239
1311876803.773117 0.119739 9.279797 -1.736220
1311876803.774006 0.119739 9.279797 -1.736220
1311876803.777872 0.023948 9.758754 -0.586723
1311876803.778868 0.023948 9.758754 -0.586723
1311876803.782272 0.119739 9.471380 -1.161471
1311876803.783730 0.119739 9.471380 -1.161471
1311876803.784736 0.119739 9.471380 -1.161471
1311876803.788008 0.814227 9.375588 -2.119386
1311876803.789112 0.814227 9.375588 -2.119386
1311876803.792946 0.407114 9.950337 -1.257263
1311876803.793863 0.407114 9.950337 -1.257263
1311876803.797104 -0.167635 9.519276 -0.778306
1311876803.798089 -0.167635 9.519276 -0.778306
1311876803.801729 0.071844 9.184006 -1.161471
1311876803.802713 0.071844 9.184006 -1.161471
1311876803.803977 0.071844 9.184006 -1.161471
1311876803.805114 0.071844 9.184006 -1.161471
1311876803.808861 1.089628 9.375588 -2.119386
1311876803.811746 0.011974 9.088214 -1.736220
1311876803.812720 0.011974 9.088214 -1.736220
1311876803.813990 0.011974 9.088214 -1.736220
1311876803.814998 0.011974 9.088214 -1.736220
1311876803.818625 0.227505 9.279797 -0.586723
1311876803.819770 0.227505 9.279797 -0.586723
1311876803.822996 0.407114 9.136110 -1.257263
1311876803.824104 0.407114 9.136110 -1.257263
1311876803.827611 0.598697 9.184006 -1.832012
1311876803.828702 0.598697 9.184006 -1.832012
1311876803.832008 0.407114 9.662963 -0.802253
1311876803.833086 0.407114 9.662963 -0.802253
1311876803.836764 -0.059870 9.519276 -0.011974
1311876803.837736 -0.059870 9.519276 -0.011974
1311876803.839002 -0.059870 9.519276 -0.011974
1311876803.839996 -0.059870 9.519276 -0.011974
1311876803.843085 0.407114 9.375588 -0.407114
1311876803.844122 0.407114 9.375588 -0.407114
1311876803.847902 1.185419 9.423484 -0.969888
1311876803.848994 1.185419 9.423484 -0.969888
1311876803.851985 0.023948 9.423484 -0.490931
1311876803.853214 0.023948 9.423484 -0.490931
1311876803.856753 -0.011974 9.088214 0.179609
1311876803.857710 -0.011974 9.088214 0.179609
1311876803.858961 -0.011974 9.088214 0.179609
1311876803.859960 -0.011974 9.088214 0.179609
1311876803.863104 0.706462 8.705048 -0.874097
1311876803.864249 0.706462 8.705048 -0.874097
1311876803.867789 0.598697 8.896631 -1.161471
1311876803.868857 0.598697 8.896631 -1.161471
1311876803.872128 0.227505 9.279797 -0.407114
1311876803.873489 0.227505 9.279797 -0.407114
1311876803.876731 0.035922 9.184006 -0.107765
1311876803.877718 0.035922 9.184006 -0.107765
1311876803.878974 0.035922 9.184006 -0.107765
1311876803.879974 0.035922 9.184006 -0.107765
1311876803.883620 0.407114 9.100188 -1.209367
1311876803.884736 0.407114 9.100188 -1.209367
1311876803.885701 0.407114 9.100188 -1.209367
1311876803.889127 0.993836 9.567171 -1.448846
1311876803.890107 0.993836 9.567171 -1.448846
1311876803.893125 -0.347244 9.471380 -0.969888
1311876803.894102 -0.347244 9.471380 -0.969888
1311876803.897747 0.023948 9.471380 -0.586723
1311876803.898862 0.023948 9.471380 -0.586723
1311876803.902116 0.790279 9.375588 -1.353054
1311876803.903248 0.790279 9.375588 -1.353054
1311876803.906868 0.754358 9.088214 -1.951751
1311876803.907837 0.754358 9.088214 -1.951751
1311876803.909235 0.754358 9.088214 -1.951751
1311876803.910111 0.754358 9.088214 -1.951751
1311876803.913992 0.119739 9.662963 -0.586723
1311876803.914989 0.119739 9.662963 -0.586723
1311876803.918114 0.407114 9.112162 -0.682514
1311876803.919101 0.407114 9.112162 -0.682514
1311876803.922858 0.598697 9.088214 -1.544637
1311876803.923851 0.598697 9.088214 -1.544637
1311876803.927140 1.185419 9.375588 -1.736220
1311876803.928113 1.185419 9.375588 -1.736220
1311876803.929116 1.185419 9.375588 -1.736220
1311876803.932883 0.023948 9.854546 -0.778306
1311876803.934029 0.023948 9.854546 -0.778306
1311876803.937002 0.407114 9.483354 -0.682514
1311876803.937985 0.407114 9.483354 -0.682514
1311876803.941730 0.886071 9.184006 -1.832012
1311876803.942842 0.886071 9.184006 -1.832012
1311876803.943964 0.886071 9.184006 -1.832012
1311876803.945107 0.886071 9.184006 -1.832012
1311876803.948717 0.227505 9.279797 -2.119386
1311876803.949823 0.227505 9.279797 -2.119386
1311876803.953166 -0.011974 9.567171 -1.257263
1311876803.954231 -0.011974 9.567171 -1.257263
1311876803.957852 0.502905 9.040318 -1.544637
1311876803.958872 0.502905 9.040318 -1.544637
1311876803.962254 0.395140 9.076240 -2.598343
1311876803.963253 0.395140 9.076240 -2.598343
1311876803.966854 0.502905 9.447432 -2.694135
1311876803.967844 0.502905 9.447432 -2.694135
1311876803.969082 0.502905 9.447432 -2.694135
1311876803.970110 0.502905 9.447432 -2.694135
1311876803.973989 0.023948 9.088214 -1.161471
1311876803.974988 0.023948 9.088214 -1.161471
1311876803.978124 0.598697 9.423484 -1.113576
1311876803.979280 0.598697 9.423484 -1.113576
1311876803.982973 0.407114 9.279797 -2.215177
1311876803.983980 0.407114 9.279797 -2.215177
1311876803.986962 0.371192 9.279797 -1.879907
1311876803.988106 0.371192 9.279797 -1.879907
1311876803.991744 0.023948 9.471380 -0.778306
1311876803.992834 0.023948 9.471380 -0.778306
1311876803.994019 0.023948 9.471380 -0.778306
1311876803.995150 0.023948 9.471380 -0.778306
1311876803.998124 -0.011974 9.279797 -1.173445
1311876803.999122 -0.011974 9.279797 -1.173445
1311876804.002856 0.502905 9.519276 -1.939777
1311876804.003988 0.502905 9.519276 -1.939777
1311876804.006961 0.407114 9.662963 -1.927803
1311876804.008106 0.407114 9.662963 -1.927803
1311876804.011586 -0.347244 9.279797 -1.544637
1311876804.012708 -0.347244 9.279797 -1.544637
1311876804.013729 -0.347244 9.279797 -1.544637
1311876804.017088 0.119739 9.495328 -1.544637
1311876804.018082 0.119739 9.495328 -1.544637
1311876804.021728 0.227505 9.279797 -2.310969
1311876804.022736 0.227505 9.279797 -2.310969
1311876804.023999 0.227505 9.279797 -2.310969
1311876804.025108 0.227505 9.279797 -2.310969
1311876804.028110 0.023948 9.459406 -1.975699
1311876804.029206 0.023948 9.459406 -1.975699
1311876804.032857 0.011974 9.375588 -1.161471
1311876804.033959 0.011974 9.375588 -1.161471
1311876804.037004 -0.011974 9.279797 -1.353054
1311876804.037958 -0.011974 9.279797 -1.353054
1311876804.041736 0.227505 9.064266 -2.310969
1311876804.042910 0.227505 9.064266 -2.310969
1311876804.043983 0.227505 9.064266 -2.310969
1311876804.045139 0.227505 9.064266 -2.310969
1311876804.048777 0.227505 9.567171 -2.023594
1311876804.049822 0.227505 9.567171 -2.023594
1311876804.053156 -0.443035 9.471380 -1.520689
1311876804.054156 -0.443035 9.471380 -1.520689
1311876804.057771 -0.011974 9.471380 -1.927803
1311876804.058743 -0.011974 9.471380 -1.927803
1311876804.061970 0.407114 9.471380 -2.358865
1311876804.062964 0.407114 9.471380 -2.358865
1311876804.064585 0.407114 9.471380 -2.358865
1311876804.067714 -0.167635 9.854546 -1.951751
1311876804.068822 -0.167635 9.854546 -1.951751
1311876804.072127 -0.263426 9.662963 -0.874097
1311876804.073115 -0.263426 9.662963 -0.874097
1311876804.076753 0.023948 9.459406 -1.065680
1311876804.077826 0.023948 9.459406 -1.065680
1311876804.079083 0.023948 9.459406 -1.065680
1311876804.080105 0.023948 9.459406 -1.065680
1311876804.083721 0.407114 9.471380 -1.640429
1311876804.084946 0.407114 9.471380 -1.640429
1311876804.088113 0.227505 9.866520 -1.113576
1311876804.089148 0.227505 9.866520 -1.113576
1311876804.092732 -0.359218 9.136110 -0.682514
1311876804.093728 -0.359218 9.136110 -0.682514
1311876804.096976 0.119739 9.423484 -0.969888
1311876804.098096 0.119739 9.423484 -0.969888
1311876804.101762 0.502905 9.471380 -1.832012
1311876804.102730 0.502905 9.471380 -1.832012
1311876804.104107 0.502905 9.471380 -1.832012
1311876804.105106 0.502905 9.471380 -1.832012
1311876804.108080 -0.263426 9.279797 -0.969888
1311876804.109206 -0.263426 9.279797 -0.969888
1311876804.112866 0.023948 9.136110 -0.586723
1311876804.113867 0.023948 9.136110 -0.586723
1311876804.117093 0.227505 9.088214 -1.065680
1311876804.118103 0.227505 9.088214 -1.065680
1311876804.121731 0.407114 9.088214 -1.544637
1311876804.122702 0.407114 9.088214 -1.544637
1311876804.124267 0.407114 9.088214 -1.544637
1311876804.126966 0.407114 9.279797 -0.969888
1311876804.128088 0.407114 9.279797 -0.969888
1311876804.131774 0.023948 9.088214 -0.682514
1311876804.134184 0.023948 9.088214 -0.682514
1311876804.136422 0.071844 9.136110 -0.778306
1311876804.137591 0.071844 9.136110 -0.778306
1311876804.138882 0.071844 9.136110 -0.778306
1311876804.139980 0.071844 9.136110 -0.778306
1311876804.143134 0.455009 9.459406 -1.209367
1311876804.144108 0.455009 9.459406 -1.209367
1311876804.147725 -0.167635 9.471380 -0.730410
1311876804.148851 -0.167635 9.471380 -0.730410
1311876804.152086 0.023948 9.471380 -0.490931
1311876804.152978 0.023948 9.471380 -0.490931
1311876804.156734 0.407114 9.471380 -1.161471
1311876804.157747 0.407114 9.471380 -1.161471
1311876804.158981 0.407114 9.471380 -1.161471
1311876804.159978 0.407114 9.471380 -1.161471
1311876804.162998 0.407114 9.662963 -1.257263
1311876804.164133 0.407114 9.662963 -1.257263
1311876804.167864 0.071844 9.854546 -0.490931
1311876804.168916 0.071844 9.854546 -0.490931
1311876804.171985 -0.059870 9.184006 -0.395140
1311876804.173099 -0.059870 9.184006 -0.395140
1311876804.176740 0.455009 9.471380 -0.969888
1311876804.177727 0.455009 9.471380 -0.969888
1311876804.178993 0.455009 9.471380 -0.969888
1311876804.179982 0.455009 9.471380 -0.969888
1311876804.183115 0.455009 9.495328 -1.353054
1311876804.184110 0.455009 9.495328 -1.353054
1311876804.187727 -0.311322 9.088214 -0.969888
1311876804.188867 -0.311322 9.088214 -0.969888
1311876804.191972 0.754358 9.279797 -1.161471
1311876804.192964 0.754358 9.279797 -1.161471
1311876804.196741 0.886071 8.896631 -1.951751
1311876804.197721 0.886071 8.896631 -1.951751
1311876804.198961 0.886071 8.896631 -1.951751
1311876804.199984 0.886071 8.896631 -1.951751
1311876804.203113 0.071844 9.375588 -1.927803
1311876804.204258 0.071844 9.375588 -1.927803
1311876804.207741 0.323296 9.184006 -1.544637
1311876804.208725 0.323296 9.184006 -1.544637
1311876804.211984 0.227505 8.800840 -1.736220
1311876804.213134 0.227505 8.800840 -1.736220
1311876804.216743 0.227505 9.279797 -2.502552
1311876804.217737 0.227505 9.279797 -2.502552
1311876804.218953 0.227505 9.279797 -2.502552
1311876804.219954 0.227505 9.279797 -2.502552
1311876804.223205 0.119739 9.471380 -1.544637
1311876804.224355 0.119739 9.471380 -1.544637
1311876804.227840 -0.059870 9.136110 -0.778306
1311876804.228955 -0.059870 9.136110 -0.778306
1311876804.232017 0.502905 9.471380 -0.969888
1311876804.232975 0.502905 9.471380 -0.969888
1311876804.236737 0.802253 9.088214 -1.353054
1311876804.237719 0.802253 9.088214 -1.353054
1311876804.238969 0.802253 9.088214 -1.353054
1311876804.239991 0.802253 9.088214 -1.353054
1311876804.243454 0.119739 9.567171 -0.586723
1311876804.246719 0.227505 9.471380 -0.203557
1311876804.247743 0.227505 9.471380 -0.203557
1311876804.248998 0.227505 9.471380 -0.203557
1311876804.249958 0.227505 9.471380 -0.203557
1311876804.253590 0.227505 9.423484 -1.065680
1311876804.256722 0.502905 9.662963 -1.173445
1311876804.257719 0.502905 9.662963 -1.173445
1311876804.258960 0.502905 9.662963 -1.173445
1311876804.259992 0.502905 9.662963 -1.173445
1311876804.263129 0.011974 9.662963 -0.802253
1311876804.264112 0.011974 9.662963 -0.802253
1311876804.267679 -0.011974 9.447432 -0.778306
1311876804.268722 -0.011974 9.447432 -0.778306
1311876804.272035 0.598697 9.567171 -1.185419
1311876804.272985 0.598697 9.567171 -1.185419
1311876804.274281 0.598697 9.567171 -1.185419
1311876804.275616 0.598697 9.567171 -1.185419
1311876804.278990 0.407114 9.471380 -1.927803
1311876804.279986 0.407114 9.471380 -1.927803
1311876804.283248 0.407114 9.279797 -1.353054
1311876804.284110 0.407114 9.279797 -1.353054
1311876804.288079 1.089628 9.136110 -1.448846
1311876804.288954 1.089628 9.136110 -1.448846
1311876804.289951 1.089628 9.136110 -1.448846
1311876804.293585 0.814227 8.609257 -2.310969
1311876804.296800 0.993836 8.752944 -2.406760
1311876804.297731 0.993836 8.752944 -2.406760
1311876804.299011 0.993836 8.752944 -2.406760
1311876804.299969 0.993836 8.752944 -2.406760
1311876804.303176 0.802253 8.896631 -2.310969
1311876804.304149 0.802253 8.896631 -2.310969
1311876804.307730 0.407114 8.657153 -2.023594
1311876804.308734 0.407114 8.657153 -2.023594
1311876804.311983 0.886071 9.184006 -2.023594
1311876804.313112 0.886071 9.184006 -2.023594
1311876804.314604 0.886071 9.184006 -2.023594
1311876804.317720 0.502905 9.662963 -2.215177
1311876804.318712 0.502905 9.662963 -2.215177
1311876804.322096 0.011974 9.902441 -1.927803
1311876804.323091 0.011974 9.902441 -1.927803
1311876804.326713 0.598697 10.046129 -1.185419
1311876804.327704 0.598697 10.046129 -1.185419
1311876804.328957 0.598697 10.046129 -1.185419
1311876804.330111 0.598697 10.046129 -1.185419
1311876804.333268 0.227505 9.854546 -1.927803
1311876804.334611 0.227505 9.854546 -1.927803
1311876804.337861 0.407114 9.567171 -1.832012
1311876804.338979 0.407114 9.567171 -1.832012
1311876804.342114 0.993836 9.662963 -1.353054
1311876804.343112 0.993836 9.662963 -1.353054
1311876804.346599 0.431062 9.184006 -1.161471
1311876804.347748 0.431062 9.184006 -1.161471
1311876804.348955 0.431062 9.184006 -1.161471
1311876804.349976 0.431062 9.184006 -1.161471
1311876804.353208 1.137524 9.088214 -1.353054
1311876804.354079 1.137524 9.088214 -1.353054
1311876804.357842 1.185419 8.800840 -1.736220
1311876804.358838 1.185419 8.800840 -1.736220
1311876804.361961 0.993836 8.681100 -1.496741
1311876804.363084 0.993836 8.681100 -1.496741
1311876804.366793 0.838175 9.088214 -1.209367
1311876804.367716 0.838175 9.088214 -1.209367
1311876804.368989 0.838175 9.088214 -1.209367
1311876804.370246 0.838175 9.088214 -1.209367
1311876804.373230 0.407114 8.800840 -1.879907
1311876804.374627 0.407114 8.800840 -1.879907
1311876804.377851 0.802253 9.471380 -1.832012
1311876804.378949 0.802253 9.471380 -1.832012
1311876804.381992 0.598697 9.471380 -1.640429
1311876804.382973 0.598697 9.471380 -1.640429
1311876804.386708 0.023948 9.471380 -1.544637
1311876804.387709 0.023948 9.471380 -1.544637
1311876804.389090 0.023948 9.471380 -1.544637
1311876804.389992 0.023948 9.471380 -1.544637
1311876804.393090 0.598697 9.375588 -1.832012
1311876804.394131 0.598697 9.375588 -1.832012
1311876804.397701 0.419088 9.279797 -1.939777
1311876804.398732 0.419088 9.279797 -1.939777
1311876804.402110 0.119739 9.375588 -1.448846
1311876804.403115 0.119739 9.375588 -1.448846
1311876804.406752 0.407114 9.088214 -1.161471
1311876804.407755 0.407114 9.088214 -1.161471
1311876804.408984 0.407114 9.088214 -1.161471
1311876804.410138 0.407114 9.088214 -1.161471
1311876804.413097 0.371192 8.896631 -1.353054
1311876804.414080 0.371192 8.896631 -1.353054
1311876804.417720 0.227505 9.088214 -1.161471
1311876804.418852 0.227505 9.088214 -1.161471
1311876804.421961 0.023948 9.279797 -0.826201
1311876804.423097 0.023948 9.279797 -0.826201
1311876804.426590 -0.167635 9.279797 -0.790279
1311876804.427574 -0.167635 9.279797 -0.790279
1311876804.428824 -0.167635 9.279797 -0.790279
1311876804.430398 -0.167635 9.279797 -0.790279
1311876804.433136 0.023948 9.950337 -0.586723
1311876804.434230 0.023948 9.950337 -0.586723
1311876804.437725 -0.359218 9.662963 -0.586723
1311876804.438720 -0.359218 9.662963 -0.586723
1311876804.441977 -0.359218 9.662963 -0.682514
1311876804.442978 -0.359218 9.662963 -0.682514
1311876804.446576 -0.167635 9.854546 -0.778306
1311876804.447571 -0.167635 9.854546 -0.778306
1311876804.448715 -0.167635 9.854546 -0.778306
1311876804.451983 -0.395140 9.088214 -0.682514
1311876804.452950 -0.395140 9.088214 -0.682514
1311876804.456743 -0.359218 9.471380 -0.490931
1311876804.457866 -0.359218 9.471380 -0.490931
1311876804.458728 -0.359218 9.471380 -0.490931
1311876804.462130 -0.347244 8.705048 -0.969888
1311876804.463093 -0.347244 8.705048 -0.969888
1311876804.466732 -0.443035 8.705048 -1.161471
1311876804.467885 -0.443035 8.705048 -1.161471
1311876804.468970 -0.443035 8.705048 -1.161471
1311876804.469968 -0.443035 8.705048 -1.161471
1311876804.473098 -0.311322 8.752944 -1.161471
1311876804.474105 -0.311322 8.752944 -1.161471
1311876804.477703 -0.538827 8.705048 -1.161471
1311876804.478739 -0.538827 8.705048 -1.161471
1311876804.481959 -0.730410 9.423484 -0.682514
1311876804.483109 -0.730410 9.423484 -0.682514
1311876804.486743 0.227505 10.189816 -0.395140
1311876804.487715 0.227505 10.189816 -0.395140
1311876804.488823 0.227505 10.189816 -0.395140
1311876804.491956 0.502905 10.046129 -0.395140
1311876804.492973 0.502905 10.046129 -0.395140
1311876804.496100 0.598697 10.608903 -0.023948
1311876804.497653 0.598697 10.608903 -0.023948
1311876804.498851 0.598697 10.608903 -0.023948
1311876804.499860 0.598697 10.608903 -0.023948
1311876804.503208 1.185419 9.758754 -0.395140
1311876804.504236 1.185419 9.758754 -0.395140
1311876804.507733 1.556611 9.279797 -0.586723
1311876804.508696 1.556611 9.279797 -0.586723
1311876804.511992 1.760168 9.088214 -0.969888
1311876804.513098 1.760168 9.088214 -0.969888
1311876804.516856 1.173445 8.896631 -1.353054
1311876804.517837 1.173445 8.896631 -1.353054
1311876804.518964 1.173445 8.896631 -1.353054
1311876804.519952 1.173445 8.896631 -1.353054
1311876804.523484 0.598697 8.693074 -2.358865
1311876804.524595 0.598697 8.693074 -2.358865
1311876804.527995 0.419088 9.375588 -3.268883
1311876804.528980 0.419088 9.375588 -3.268883
1311876804.532598 -0.730410 9.375588 -3.652049
1311876804.533614 -0.730410 9.375588 -3.652049
1311876804.536964 -0.730410 9.662963 -3.460466
1311876804.537962 -0.730410 9.662963 -3.460466
1311876804.539230 -0.730410 9.662963 -3.460466
1311876804.540271 -0.730410 9.662963 -3.460466
1311876804.543979 -0.167635 9.878494 -2.502552
1311876804.545127 -0.167635 9.878494 -2.502552
1311876804.548111 -0.730410 9.662963 -2.119386
1311876804.549108 -0.730410 9.662963 -2.119386
1311876804.552740 0.323296 9.662963 -1.544637
1311876804.553851 0.323296 9.662963 -1.544637
1311876804.556966 0.838175 8.896631 -1.065680
1311876804.558081 0.838175 8.896631 -1.065680
1311876804.562089 0.754358 8.513465 -0.203557
1311876804.563777 0.754358 8.513465 -0.203557
1311876804.566593 1.365028 8.417674 0.371192
1311876804.567724 1.365028 8.417674 0.371192
1311876804.568968 1.365028 8.417674 0.371192
1311876804.569840 1.365028 8.417674 0.371192
1311876804.573096 1.472794 8.513465 0.179609
1311876804.574229 1.472794 8.513465 0.179609
1311876804.577703 1.903855 9.088214 -0.011974
1311876804.578689 1.903855 9.088214 -0.011974
1311876804.581969 1.951751 9.471380 0.419088
1311876804.582966 1.951751 9.471380 0.419088
1311876804.584234 1.951751 9.471380 0.419088
1311876804.585595 1.951751 9.471380 0.419088
1311876804.588844 1.365028 9.662963 0.466983
1311876804.589827 1.365028 9.662963 0.466983
1311876804.593097 1.939777 9.662963 -0.586723
1311876804.594113 1.939777 9.662963 -0.586723
1311876804.597729 1.951751 9.471380 -1.161471
1311876804.598856 1.951751 9.471380 -1.161471
1311876804.602021 1.544637 9.567171 -1.137524
1311876804.603113 1.544637 9.567171 -1.137524
1311876804.606600 1.269237 9.902441 -1.161471
1311876804.607775 1.269237 9.902441 -1.161471
1311876804.608854 1.269237 9.902441 -1.161471
1311876804.609978 1.269237 9.902441 -1.161471
1311876804.613871 0.886071 9.854546 -3.556258
1311876804.614844 0.886071 9.854546 -3.556258
1311876804.618598 0.993836 10.525086 -4.993129
1311876804.619593 0.993836 10.525086 -4.993129
1311876804.622967 0.502905 10.525086 -5.328400
1311876804.624046 0.502905 10.525086 -5.328400
1311876804.626950 0.227505 9.471380 -5.376295
1311876804.627945 0.227505 9.471380 -5.376295
1311876804.631659 1.365028 9.375588 -5.184712
1311876804.632726 1.365028 9.375588 -5.184712
1311876804.634072 1.365028 9.375588 -5.184712
1311876804.635007 1.365028 9.375588 -5.184712
1311876804.638244 1.269237 7.950691 -4.945234
1311876804.639617 1.269237 7.950691 -4.945234
1311876804.643091 1.472794 7.747134 -3.173092
1311876804.644134 1.472794 7.747134 -3.173092
1311876804.647956 1.556611 8.226091 -1.353054
1311876804.648951 1.556611 8.226091 -1.353054
1311876804.652578 1.161471 8.130300 -1.161471
1311876804.653738 1.161471 8.130300 -1.161471
1311876804.656840 1.556611 7.938717 -1.161471
1311876804.657979 1.556611 7.938717 -1.161471
1311876804.659135 1.556611 7.938717 -1.161471
1311876804.660130 1.556611 7.938717 -1.161471
1311876804.663752 1.173445 8.513465 0.706462
1311876804.664847 1.173445 8.513465 0.706462
1311876804.668278 0.407114 8.896631 1.544637
1311876804.669605 0.407114 8.896631 1.544637
1311876804.672849 0.227505 9.088214 1.508715
1311876804.673853 0.227505 9.088214 1.508715
1311876804.677228 0.502905 9.471380 0.371192
1311876804.678267 0.502905 9.471380 0.371192
1311876804.681730 0.023948 9.854546 0.275400
1311876804.682714 0.023948 9.854546 0.275400
1311876804.683968 0.023948 9.854546 0.275400
1311876804.685090 0.023948 9.854546 0.275400
1311876804.688719 -0.167635 9.878494 0.562775
1311876804.689705 -0.167635 9.878494 0.562775
1311876804.692830 0.035922 9.854546 -0.011974
1311876804.693844 0.035922 9.854546 -0.011974
1311876804.697109 -0.059870 9.878494 -0.586723
1311876804.698108 -0.059870 9.878494 -0.586723
1311876804.701751 0.023948 9.662963 -1.209367
1311876804.702832 0.023948 9.662963 -1.209367
1311876804.703991 0.023948 9.662963 -1.209367
1311876804.705853 0.023948 9.662963 -1.209367
1311876804.708227 0.407114 8.992423 -1.520689
1311876804.709071 0.407114 8.992423 -1.520689
1311876804.712736 0.598697 8.896631 -1.209367
1311876804.713727 0.598697 8.896631 -1.209367
1311876804.717233 0.023948 8.321882 -1.736220
1311876804.718227 0.023948 8.321882 -1.736220
1311876804.721731 0.598697 8.657153 -1.927803
1311876804.722860 0.598697 8.657153 -1.927803
1311876804.723982 0.598697 8.657153 -1.927803
1311876804.724980 0.598697 8.657153 -1.927803
1311876804.728088 0.407114 8.513465 -1.353054
1311876804.729194 0.407114 8.513465 -1.353054
1311876804.732753 0.011974 9.184006 -1.257263
1311876804.733881 0.011974 9.184006 -1.257263
1311876804.737101 0.023948 9.806650 -1.353054
1311876804.738092 0.023948 9.806650 -1.353054
1311876804.739607 0.023948 9.806650 -1.353054
1311876804.742723 0.407114 9.950337 -1.544637
1311876804.743706 0.407114 9.950337 -1.544637
1311876804.746946 -0.059870 10.333503 -1.161471
1311876804.748105 -0.059870 10.333503 -1.161471
1311876804.751742 -0.395140 10.429294 -0.778306
1311876804.752704 -0.395140 10.429294 -0.778306
1311876804.753978 -0.395140 10.429294 -0.778306
1311876804.755045 -0.395140 10.429294 -0.778306
1311876804.758099 -0.167635 10.237712 -0.778306
1311876804.759084 -0.167635 10.237712 -0.778306
1311876804.762736 0.023948 9.662963 -1.137524
1311876804.763712 0.023948 9.662963 -1.137524
1311876804.766963 0.227505 9.483354 -0.969888
1311876804.768093 0.227505 9.483354 -0.969888
1311876804.771621 0.023948 9.088214 -0.682514
1311876804.772972 0.023948 9.088214 -0.682514
1311876804.773967 0.023948 9.088214 -0.682514
1311876804.774957 0.023948 9.088214 -0.682514
1311876804.778116 1.161471 9.136110 -0.790279
1311876804.779212 1.161471 9.136110 -0.790279
1311876804.782731 1.556611 8.752944 -1.161471
1311876804.783701 1.556611 8.752944 -1.161471
1311876804.787082 0.790279 8.513465 -0.874097
1311876804.788084 0.790279 8.513465 -0.874097
1311876804.791611 0.455009 9.088214 -0.969888
1311876804.792703 0.455009 9.088214 -0.969888
1311876804.793713 0.455009 9.088214 -0.969888
1311876804.797093 0.886071 9.136110 -1.544637
1311876804.798074 0.886071 9.136110 -1.544637
1311876804.801863 0.371192 9.471380 -1.927803
1311876804.802822 0.371192 9.471380 -1.927803
1311876804.803979 0.371192 9.471380 -1.927803
1311876804.806975 0.011974 9.902441 -1.927803
1311876804.807945 0.011974 9.902441 -1.927803
1311876804.811609 -0.167635 9.950337 -1.736220
1311876804.812725 -0.167635 9.950337 -1.736220
1311876804.813745 -0.167635 9.950337 -1.736220
1311876804.817091 -0.335270 9.902441 -2.502552
1311876804.818207 -0.335270 9.902441 -2.502552
1311876804.821711 0.023948 9.662963 -3.077300
1311876804.823122 0.023948 9.662963 -3.077300
1311876804.823969 0.023948 9.662963 -3.077300
1311876804.825197 0.023948 9.662963 -3.077300
1311876804.828786 -0.335270 9.662963 -2.322943
1311876804.829847 -0.335270 9.662963 -2.322943
1311876804.832983 0.023948 9.136110 -1.975699
1311876804.834098 0.023948 9.136110 -1.975699
1311876804.837605 0.023948 8.800840 -1.975699
1311876804.838562 0.023948 8.800840 -1.975699
1311876804.841958 0.407114 9.088214 -2.119386
1311876804.842970 0.407114 9.088214 -2.119386
1311876804.844202 0.407114 9.088214 -2.119386
1311876804.845583 0.407114 9.088214 -2.119386
1311876804.848963 0.119739 9.088214 -0.778306
1311876804.849939 0.119739 9.088214 -0.778306
1311876804.853156 0.023948 9.040318 -0.419088
1311876804.854231 0.023948 9.040318 -0.419088
1311876804.857843 0.419088 8.992423 -0.969888
1311876804.858979 0.419088 8.992423 -0.969888
1311876804.861981 0.502905 9.184006 -0.969888
1311876804.862979 0.502905 9.184006 -0.969888
1311876804.866617 -0.167635 9.088214 -1.113576
1311876804.867692 -0.167635 9.088214 -1.113576
1311876804.868837 -0.167635 9.088214 -1.113576
1311876804.869962 -0.167635 9.088214 -1.113576
1311876804.873100 0.119739 9.459406 -0.969888
1311876804.874261 0.119739 9.459406 -0.969888
1311876804.877698 -0.335270 9.088214 -1.544637
1311876804.878715 -0.335270 9.088214 -1.544637
1311876804.882096 -0.263426 9.279797 -2.023594
1311876804.883090 -0.263426 9.279797 -2.023594
1311876804.886711 0.011974 9.758754 -1.556611
1311876804.887695 0.011974 9.758754 -1.556611
1311876804.888951 0.011974 9.758754 -1.556611
1311876804.890068 0.011974 9.758754 -1.556611
1311876804.893579 -0.167635 9.375588 -0.395140
1311876804.894619 -0.167635 9.375588 -0.395140
1311876804.897863 0.371192 9.854546 -0.299348
1311876804.898833 0.371192 9.854546 -0.299348
1311876804.902132 0.838175 9.495328 -1.161471
1311876804.903071 0.838175 9.495328 -1.161471
1311876804.906712 0.802253 9.112162 -0.778306
1311876804.907838 0.802253 9.112162 -0.778306
1311876804.908990 0.802253 9.112162 -0.778306
1311876804.910089 0.802253 9.112162 -0.778306
1311876804.913080 0.993836 9.088214 -0.059870
1311876804.914066 0.993836 9.088214 -0.059870
1311876804.917719 1.185419 8.705048 -0.682514
1311876804.918733 1.185419 8.705048 -0.682514
1311876804.922107 1.365028 8.800840 -1.448846
1311876804.923248 1.365028 8.800840 -1.448846
