# accelerometer data
# file: 'rgbd_dataset_freiburg1_room.bag'
# timestamp ax ay az
1305031906.964072 0.778306 7.627394 -5.699591
1305031906.965055 0.778306 7.627394 -5.699591
1305031906.968313 0.862123 7.531603 -5.699591
1305031906.969303 0.862123 7.531603 -5.699591
1305031906.973052 0.682514 7.627394 -5.915122
1305031906.973948 0.682514 7.627394 -5.915122
1305031906.977206 0.862123 7.818977 -5.891174
1305031906.978172 0.862123 7.818977 -5.891174
1305031906.981814 0.778306 7.914769 -5.699591
1305031906.982940 0.778306 7.914769 -5.699591
1305031906.984068 0.778306 7.914769 -5.699591
1305031906.985206 0.778306 7.914769 -5.699591
1305031906.988375 0.826201 8.010560 -5.603800
1305031906.989319 0.826201 8.010560 -5.603800
1305031906.992959 0.778306 8.010560 -5.867226
1305031906.993944 0.778306 8.010560 -5.867226
1305031906.997207 0.862123 8.010560 -5.699591
1305031906.998194 0.862123 8.010560 -5.699591
1305031907.001840 0.862123 7.962665 -5.891174
1305031907.002831 0.862123 7.962665 -5.891174
1305031907.004090 0.862123 7.962665 -5.891174
1305031907.005217 0.862123 7.962665 -5.891174
1305031907.008411 0.862123 7.962665 -5.699591
1305031907.009336 0.862123 7.962665 -5.699591
1305031907.012945 0.862123 8.010560 -5.891174
1305031907.013947 0.862123 8.010560 -5.891174
1305031907.017212 0.910019 7.914769 -5.986966
1305031907.018195 0.910019 7.914769 -5.986966
1305031907.021817 0.957915 7.818977 -6.298288
1305031907.022792 0.957915 7.818977 -6.298288
1305031907.024072 0.957915 7.818977 -6.298288
1305031907.025217 0.957915 7.818977 -6.298288
1305031907.028191 1.053706 7.627394 -5.986966
1305031907.029349 1.053706 7.627394 -5.986966
1305031907.032992 0.862123 7.675290 -6.082757
1305031907.033958 0.862123 7.675290 -6.082757
1305031907.037207 0.862123 7.627394 -6.178549
1305031907.038158 0.862123 7.627394 -6.178549
1305031907.041873 1.053706 7.603447 -6.370132
1305031907.042800 1.053706 7.603447 -6.370132
1305031907.044070 1.053706 7.603447 -6.370132
1305031907.045273 1.053706 7.603447 -6.370132
1305031907.048332 1.245289 7.627394 -6.465923
1305031907.049334 1.245289 7.627394 -6.465923
1305031907.052942 1.245289 7.579499 -6.609610
1305031907.053963 1.245289 7.579499 -6.609610
1305031907.057197 0.862123 7.627394 -6.465923
1305031907.058407 0.862123 7.627394 -6.465923
1305031907.061834 0.957915 7.627394 -6.657506
1305031907.062854 0.957915 7.627394 -6.657506
1305031907.064071 0.957915 7.627394 -6.657506
1305031907.065211 0.957915 7.627394 -6.657506
1305031907.068198 1.053706 7.627394 -6.657506
1305031907.069271 1.053706 7.627394 -6.657506
1305031907.072966 0.910019 7.627394 -6.657506
1305031907.073962 0.910019 7.627394 -6.657506
1305031907.077070 0.862123 7.627394 -6.657506
1305031907.078196 0.862123 7.627394 -6.657506
1305031907.079320 0.862123 7.627394 -6.657506
1305031907.080526 0.862123 7.627394 -6.657506
1305031907.083978 0.862123 7.435812 -6.657506
1305031907.085083 0.862123 7.435812 -6.657506
1305031907.088333 0.957915 7.435812 -6.849089
1305031907.089299 0.957915 7.435812 -6.849089
1305031907.092980 1.209367 7.435812 -6.561715
1305031907.094125 1.209367 7.435812 -6.561715
1305031907.097221 1.053706 7.615421 -6.657506
1305031907.098198 1.053706 7.615421 -6.657506
1305031907.101854 1.209367 7.435812 -6.657506
1305031907.102796 1.209367 7.435812 -6.657506
1305031907.104072 1.209367 7.435812 -6.657506
1305031907.105210 1.209367 7.435812 -6.657506
1305031907.108449 1.257263 7.627394 -6.657506
1305031907.109340 1.257263 7.627394 -6.657506
1305031907.112959 1.053706 7.615421 -6.657506
1305031907.113961 1.053706 7.615421 -6.657506
1305031907.117209 1.053706 7.627394 -6.370132
1305031907.118239 1.053706 7.627394 -6.370132
1305031907.119488 1.053706 7.627394 -6.370132
1305031907.122803 1.053706 7.603447 -6.370132
1305031907.123962 1.053706 7.603447 -6.370132
1305031907.127198 0.874097 7.627394 -6.274340
1305031907.128222 0.874097 7.627394 -6.274340
1305031907.131858 0.862123 7.627394 -6.274340
1305031907.132817 0.862123 7.627394 -6.274340
1305031907.134088 0.862123 7.627394 -6.274340
1305031907.135084 0.862123 7.627394 -6.274340
1305031907.138371 0.862123 7.627394 -6.274340
1305031907.139397 0.862123 7.627394 -6.274340
1305031907.142967 0.910019 7.723186 -6.250392
1305031907.143961 0.910019 7.723186 -6.250392
1305031907.147264 1.053706 7.723186 -6.322236
1305031907.148237 1.053706 7.723186 -6.322236
1305031907.151717 0.957915 8.010560 -6.274340
1305031907.152812 0.957915 8.010560 -6.274340
1305031907.154094 0.957915 8.010560 -6.274340
1305031907.155071 0.957915 8.010560 -6.274340
1305031907.158363 1.053706 7.986612 -6.274340
1305031907.159366 1.053706 7.986612 -6.274340
1305031907.162924 1.053706 7.986612 -6.465923
1305031907.163919 1.053706 7.986612 -6.465923
1305031907.167212 1.161471 7.962665 -6.274340
1305031907.168173 1.161471 7.962665 -6.274340
1305031907.171881 1.233315 7.986612 -6.274340
1305031907.172815 1.233315 7.986612 -6.274340
1305031907.174092 1.233315 7.986612 -6.274340
1305031907.175066 1.233315 7.986612 -6.274340
1305031907.178358 1.053706 7.962665 -6.465923
1305031907.179320 1.053706 7.962665 -6.465923
1305031907.182986 1.053706 8.010560 -6.669480
1305031907.183950 1.053706 8.010560 -6.669480
1305031907.187212 1.053706 8.010560 -6.370132
1305031907.188225 1.053706 8.010560 -6.370132
1305031907.191859 1.053706 7.818977 -6.657506
1305031907.192956 1.053706 7.818977 -6.657506
1305031907.194170 1.053706 7.818977 -6.657506
1305031907.195164 1.053706 7.818977 -6.657506
1305031907.198296 1.233315 7.962665 -6.370132
1305031907.199368 1.233315 7.962665 -6.370132
1305031907.202983 1.161471 7.723186 -6.465923
1305031907.203946 1.161471 7.723186 -6.465923
1305031907.207207 1.053706 7.818977 -6.609610
1305031907.208252 1.053706 7.818977 -6.609610
1305031907.211836 1.209367 7.723186 -6.465923
1305031907.212799 1.209367 7.723186 -6.465923
1305031907.214088 1.209367 7.723186 -6.465923
1305031907.215062 1.209367 7.723186 -6.465923
1305031907.218385 0.862123 7.818977 -6.274340
1305031907.219369 0.862123 7.818977 -6.274340
1305031907.222983 1.053706 7.818977 -6.274340
1305031907.223963 1.053706 7.818977 -6.274340
1305031907.227184 0.957915 7.818977 -6.178549
1305031907.228184 0.957915 7.818977 -6.178549
1305031907.231704 1.053706 7.914769 -6.082757
1305031907.232804 1.053706 7.914769 -6.082757
1305031907.234072 1.053706 7.914769 -6.082757
1305031907.235069 1.053706 7.914769 -6.082757
1305031907.238293 0.957915 8.010560 -5.939070
1305031907.239337 0.957915 8.010560 -5.939070
1305031907.242981 0.910019 7.986612 -5.939070
1305031907.243948 0.910019 7.986612 -5.939070
1305031907.247184 1.053706 7.914769 -6.082757
1305031907.248199 1.053706 7.914769 -6.082757
1305031907.251817 1.053706 7.962665 -6.082757
1305031907.252811 1.053706 7.962665 -6.082757
1305031907.254087 1.053706 7.962665 -6.082757
1305031907.255084 1.053706 7.962665 -6.082757
1305031907.258339 1.053706 7.818977 -5.986966
1305031907.259335 1.053706 7.818977 -5.986966
1305031907.262936 0.957915 7.962665 -6.082757
1305031907.263933 0.957915 7.962665 -6.082757
1305031907.267033 0.910019 7.986612 -5.986966
1305031907.268215 0.910019 7.986612 -5.986966
1305031907.269796 0.910019 7.986612 -5.986966
1305031907.272939 1.053706 7.818977 -6.082757
1305031907.273973 1.053706 7.818977 -6.082757
1305031907.277194 0.862123 7.818977 -5.843279
1305031907.278334 0.862123 7.818977 -5.843279
1305031907.281855 0.862123 7.818977 -5.986966
1305031907.282796 0.862123 7.818977 -5.986966
1305031907.284075 0.862123 7.818977 -5.986966
1305031907.285208 0.862123 7.818977 -5.986966
1305031907.288349 0.910019 7.818977 -5.843279
1305031907.289337 0.910019 7.818977 -5.843279
1305031907.292953 1.053706 7.675290 -5.986966
1305031907.293935 1.053706 7.675290 -5.986966
1305031907.297175 0.862123 7.818977 -5.891174
1305031907.298166 0.862123 7.818977 -5.891174
1305031907.301815 0.886071 7.914769 -5.986966
1305031907.302963 0.886071 7.914769 -5.986966
1305031907.303970 0.886071 7.914769 -5.986966
1305031907.307208 0.862123 8.010560 -5.939070
1305031907.308209 0.862123 8.010560 -5.939070
1305031907.311834 0.826201 7.818977 -5.699591
1305031907.312803 0.826201 7.818977 -5.699591
1305031907.314071 0.826201 7.818977 -5.699591
1305031907.315063 0.826201 7.818977 -5.699591
1305031907.318333 0.910019 7.818977 -5.891174
1305031907.319364 0.910019 7.818977 -5.891174
1305031907.322978 0.778306 7.818977 -5.795383
1305031907.323964 0.778306 7.818977 -5.795383
1305031907.327175 0.826201 8.010560 -5.508009
1305031907.328170 0.826201 8.010560 -5.508009
1305031907.331849 0.778306 7.914769 -5.508009
1305031907.332940 0.778306 7.914769 -5.508009
1305031907.334073 0.778306 7.914769 -5.508009
1305031907.335214 0.778306 7.914769 -5.508009
1305031907.338339 0.778306 7.962665 -5.699591
1305031907.339320 0.778306 7.962665 -5.699591
1305031907.342972 0.862123 7.914769 -5.508009
1305031907.343966 0.862123 7.914769 -5.508009
1305031907.347191 0.862123 7.914769 -5.460113
1305031907.348243 0.862123 7.914769 -5.460113
1305031907.349805 0.862123 7.914769 -5.460113
1305031907.353083 0.886071 7.723186 -5.891174
1305031907.354089 0.886071 7.723186 -5.891174
1305031907.357210 0.862123 7.627394 -5.843279
1305031907.358240 0.862123 7.627394 -5.843279
1305031907.361802 0.778306 7.675290 -5.699591
1305031907.362792 0.778306 7.675290 -5.699591
1305031907.364046 0.778306 7.675290 -5.699591
1305031907.365045 0.778306 7.675290 -5.699591
1305031907.368201 0.682514 7.651342 -5.603800
1305031907.369310 0.682514 7.651342 -5.603800
1305031907.372954 0.682514 7.531603 -5.795383
1305031907.373965 0.682514 7.531603 -5.795383
1305031907.377218 0.682514 7.627394 -5.603800
1305031907.378350 0.682514 7.627394 -5.603800
1305031907.381896 0.574749 7.627394 -5.508009
1305031907.382798 0.574749 7.627394 -5.508009
1305031907.384091 0.574749 7.627394 -5.508009
1305031907.385222 0.574749 7.627394 -5.508009
1305031907.388340 0.478957 7.627394 -5.508009
1305031907.389318 0.478957 7.627394 -5.508009
1305031907.392937 0.443035 7.627394 -5.603800
1305031907.393922 0.443035 7.627394 -5.603800
1305031907.397184 0.287374 7.675290 -5.519982
1305031907.398181 0.287374 7.675290 -5.519982
1305031907.401808 0.443035 7.675290 -5.699591
1305031907.402788 0.443035 7.675290 -5.699591
1305031907.404053 0.443035 7.675290 -5.699591
1305031907.405173 0.443035 7.675290 -5.699591
1305031907.408320 0.191583 8.010560 -5.316426
1305031907.409464 0.191583 8.010560 -5.316426
1305031907.412963 0.478957 8.010560 -5.316426
1305031907.413943 0.478957 8.010560 -5.316426
1305031907.417194 0.478957 8.202143 -5.124843
1305031907.418197 0.478957 8.202143 -5.124843
1305031907.421839 0.478957 8.369778 -5.100895
1305031907.422796 0.478957 8.369778 -5.100895
1305031907.424089 0.478957 8.369778 -5.100895
1305031907.425052 0.478957 8.369778 -5.100895
1305031907.428169 0.526853 8.369778 -5.124843
1305031907.429306 0.526853 8.369778 -5.124843
1305031907.432803 0.682514 8.202143 -5.316426
1305031907.433968 0.682514 8.202143 -5.316426
1305031907.437212 0.395140 8.393726 -5.124843
1305031907.438217 0.395140 8.393726 -5.124843
1305031907.439312 0.395140 8.393726 -5.124843
1305031907.440556 0.395140 8.393726 -5.124843
1305031907.444134 0.478957 8.297935 -5.316426
1305031907.445090 0.478957 8.297935 -5.316426
1305031907.448328 0.526853 8.058456 -5.699591
1305031907.449322 0.526853 8.058456 -5.699591
1305031907.452928 0.478957 8.034508 -5.519982
1305031907.453948 0.478957 8.034508 -5.519982
1305031907.457204 0.574749 8.022534 -5.603800
1305031907.458202 0.574749 8.022534 -5.603800
1305031907.461807 0.443035 8.010560 -5.508009
1305031907.462780 0.443035 8.010560 -5.508009
1305031907.464041 0.443035 8.010560 -5.508009
1305031907.465082 0.443035 8.010560 -5.508009
1305031907.468349 0.443035 8.010560 -5.484061
1305031907.469285 0.443035 8.010560 -5.484061
1305031907.472930 0.443035 8.010560 -5.508009
1305031907.473936 0.443035 8.010560 -5.508009
1305031907.477223 0.395140 7.818977 -5.316426
1305031907.478244 0.395140 7.818977 -5.316426
1305031907.479473 0.395140 7.818977 -5.316426
1305031907.480610 0.395140 7.818977 -5.316426
1305031907.484196 0.478957 7.818977 -5.316426
1305031907.487212 0.395140 7.818977 -5.136817
1305031907.488228 0.395140 7.818977 -5.136817
1305031907.491861 0.478957 7.818977 -5.316426
1305031907.493259 0.478957 7.818977 -5.316426
1305031907.494171 0.478957 7.818977 -5.316426
1305031907.495167 0.478957 7.818977 -5.316426
1305031907.498297 0.395140 7.818977 -5.076947
1305031907.499296 0.395140 7.818977 -5.076947
1305031907.502968 0.478957 7.818977 -4.837468
1305031907.503950 0.478957 7.818977 -4.837468
1305031907.507214 0.478957 7.914769 -4.933260
1305031907.508223 0.478957 7.914769 -4.933260
1305031907.511849 0.478957 7.818977 -4.837468
1305031907.512793 0.478957 7.818977 -4.837468
1305031907.514100 0.478957 7.818977 -4.837468
1305031907.515072 0.478957 7.818977 -4.837468
1305031907.518346 0.526853 7.818977 -5.076947
1305031907.519321 0.526853 7.818977 -5.076947
1305031907.522986 0.682514 8.010560 -5.124843
1305031907.523949 0.682514 8.010560 -5.124843
1305031907.527057 0.502905 8.010560 -5.124843
1305031907.528214 0.502905 8.010560 -5.124843
1305031907.531816 0.682514 8.034508 -5.136817
1305031907.532987 0.682514 8.034508 -5.136817
1305031907.533794 0.682514 8.034508 -5.136817
1305031907.537217 0.778306 8.202143 -5.316426
1305031907.538200 0.778306 8.202143 -5.316426
1305031907.541951 0.826201 8.202143 -5.076947
1305031907.542973 0.826201 8.202143 -5.076947
1305031907.544076 0.826201 8.202143 -5.076947
1305031907.545202 0.826201 8.202143 -5.076947
1305031907.548223 0.957915 8.202143 -5.124843
1305031907.549336 0.957915 8.202143 -5.124843
1305031907.552924 0.862123 8.202143 -4.789573
1305031907.553934 0.862123 8.202143 -4.789573
1305031907.557195 0.886071 8.010560 -4.837468
1305031907.558249 0.886071 8.010560 -4.837468
1305031907.561800 0.886071 8.106352 -4.765625
1305031907.562791 0.886071 8.106352 -4.765625
1305031907.564048 0.886071 8.106352 -4.765625
1305031907.565039 0.886071 8.106352 -4.765625
1305031907.568207 1.053706 8.106352 -4.789573
1305031907.569293 1.053706 8.106352 -4.789573
1305031907.572796 1.053706 8.106352 -4.741677
1305031907.573968 1.053706 8.106352 -4.741677
1305031907.577214 0.957915 8.369778 -4.454303
1305031907.578238 0.957915 8.369778 -4.454303
1305031907.579471 0.957915 8.369778 -4.454303
1305031907.580467 0.957915 8.369778 -4.454303
1305031907.584089 1.053706 8.202143 -4.310615
1305031907.585098 1.053706 8.202143 -4.310615
1305031907.588368 1.209367 8.202143 -4.166928
1305031907.589379 1.209367 8.202143 -4.166928
1305031907.592965 1.161471 8.058456 -4.310615
1305031907.593942 1.161471 8.058456 -4.310615
1305031907.597051 1.161471 8.022534 -4.358511
1305031907.598044 1.161471 8.022534 -4.358511
1305031907.599329 1.161471 8.022534 -4.358511
1305031907.600466 1.161471 8.022534 -4.358511
1305031907.604128 0.957915 8.202143 -3.975345
1305031907.605091 0.957915 8.202143 -3.975345
1305031907.608346 0.886071 8.202143 -4.071137
1305031907.609369 0.886071 8.202143 -4.071137
1305031907.612927 0.886071 8.058456 -4.166928
1305031907.613954 0.886071 8.058456 -4.166928
1305031907.617323 0.910019 7.615421 -4.550094
1305031907.618343 0.910019 7.615421 -4.550094
1305031907.622006 1.053706 7.196333 -4.645885
1305031907.622973 1.053706 7.196333 -4.645885
1305031907.624221 1.053706 7.196333 -4.645885
1305031907.625202 1.053706 7.196333 -4.645885
1305031907.628354 0.862123 6.885011 -4.741677
1305031907.629522 0.862123 6.885011 -4.741677
1305031907.632995 1.053706 6.669480 -4.837468
1305031907.634063 1.053706 6.669480 -4.837468
1305031907.637199 1.053706 6.573688 -4.933260
1305031907.638198 1.053706 6.573688 -4.933260
1305031907.641877 0.957915 6.765271 -4.933260
1305031907.642824 0.957915 6.765271 -4.933260
1305031907.644086 0.957915 6.765271 -4.933260
1305031907.645194 0.957915 6.765271 -4.933260
1305031907.648225 1.053706 6.861063 -5.029051
1305031907.649375 1.053706 6.861063 -5.029051
1305031907.652799 1.053706 6.861063 -5.124843
1305031907.653975 1.053706 6.861063 -5.124843
1305031907.657090 1.257263 6.861063 -5.136817
1305031907.658056 1.257263 6.861063 -5.136817
1305031907.659351 1.257263 6.861063 -5.136817
1305031907.660541 1.257263 6.861063 -5.136817
1305031907.664059 1.448846 6.861063 -5.699591
1305031907.665052 1.448846 6.861063 -5.699591
1305031907.668351 1.245289 7.052646 -5.699591
1305031907.669325 1.245289 7.052646 -5.699591
1305031907.672965 1.293185 6.908959 -5.891174
1305031907.674114 1.293185 6.908959 -5.891174
1305031907.677222 1.257263 6.861063 -5.891174
1305031907.678199 1.257263 6.861063 -5.891174
1305031907.681864 1.245289 6.849089 -5.986966
1305031907.682800 1.245289 6.849089 -5.986966
1305031907.684105 1.245289 6.849089 -5.986966
1305031907.685055 1.245289 6.849089 -5.986966
1305031907.688385 0.957915 6.885011 -6.274340
1305031907.689325 0.957915 6.885011 -6.274340
1305031907.693002 0.862123 6.885011 -6.465923
1305031907.693945 0.862123 6.885011 -6.465923
1305031907.697194 0.826201 6.908959 -6.465923
1305031907.698182 0.826201 6.908959 -6.465923
1305031907.701869 0.862123 6.956854 -6.370132
1305031907.702851 0.862123 6.956854 -6.370132
1305031907.704099 0.862123 6.956854 -6.370132
1305031907.705238 0.862123 6.956854 -6.370132
1305031907.708197 0.682514 7.052646 -6.465923
1305031907.709351 0.682514 7.052646 -6.465923
1305031907.712968 0.574749 6.956854 -6.657506
1305031907.713977 0.574749 6.956854 -6.657506
1305031907.717214 0.478957 6.885011 -6.669480
1305031907.718225 0.478957 6.885011 -6.669480
1305031907.721881 0.478957 6.873037 -6.944880
1305031907.722834 0.478957 6.873037 -6.944880
1305031907.724078 0.478957 6.873037 -6.944880
1305031907.725194 0.478957 6.873037 -6.944880
1305031907.728354 0.287374 6.885011 -6.705402
1305031907.729299 0.287374 6.885011 -6.705402
1305031907.732975 0.287374 7.052646 -6.465923
1305031907.733926 0.287374 7.052646 -6.465923
1305031907.737191 0.191583 7.052646 -6.322236
1305031907.738189 0.191583 7.052646 -6.322236
1305031907.741810 0.107765 7.052646 -6.370132
1305031907.742790 0.107765 7.052646 -6.370132
1305031907.744061 0.107765 7.052646 -6.370132
1305031907.745189 0.107765 7.052646 -6.370132
1305031907.748223 0.395140 7.148437 -6.561715
1305031907.749343 0.395140 7.148437 -6.561715
1305031907.752936 0.287374 7.052646 -6.561715
1305031907.753973 0.287374 7.052646 -6.561715
1305031907.757215 0.287374 7.052646 -6.657506
1305031907.758200 0.287374 7.052646 -6.657506
1305031907.761824 0.287374 6.956854 -6.657506
1305031907.762799 0.287374 6.956854 -6.657506
1305031907.764055 0.287374 6.956854 -6.657506
1305031907.765052 0.287374 6.956854 -6.657506
1305031907.768200 0.478957 7.052646 -6.849089
1305031907.769325 0.478957 7.052646 -6.849089
1305031907.772927 0.287374 6.956854 -6.849089
1305031907.773974 0.287374 6.956854 -6.849089
1305031907.777227 0.395140 6.885011 -6.992776
1305031907.778204 0.395140 6.885011 -6.992776
1305031907.781848 0.287374 7.052646 -7.040672
1305031907.782807 0.287374 7.052646 -7.040672
1305031907.784096 0.287374 7.052646 -7.040672
1305031907.785121 0.287374 7.052646 -7.040672
1305031907.788258 0.107765 7.052646 -7.088568
1305031907.789324 0.107765 7.052646 -7.088568
1305031907.792826 0.107765 7.052646 -7.016724
1305031907.794139 0.107765 7.052646 -7.016724
1305031907.797055 0.107765 7.052646 -6.944880
1305031907.798066 0.107765 7.052646 -6.944880
1305031907.799301 0.107765 7.052646 -6.944880
1305031907.800326 0.107765 7.052646 -6.944880
1305031907.804092 0.287374 6.908959 -7.328046
1305031907.805068 0.287374 6.908959 -7.328046
1305031907.808345 0.395140 6.908959 -7.328046
1305031907.809343 0.395140 6.908959 -7.328046
1305031907.812929 0.287374 6.885011 -7.040672
1305031907.814016 0.287374 6.885011 -7.040672
1305031907.817248 0.107765 6.956854 -7.040672
1305031907.818219 0.107765 6.956854 -7.040672
1305031907.821861 0.095791 7.052646 -7.064620
1305031907.822844 0.095791 7.052646 -7.064620
1305031907.824097 0.095791 7.052646 -7.064620
1305031907.825073 0.095791 7.052646 -7.064620
1305031907.828371 0.011974 7.244229 -6.849089
1305031907.829318 0.011974 7.244229 -6.849089
1305031907.832981 0.095791 7.435812 -7.040672
1305031907.833932 0.095791 7.435812 -7.040672
1305031907.837198 0.095791 7.651342 -6.849089
1305031907.838326 0.095791 7.651342 -6.849089
1305031907.842006 0.107765 7.914769 -6.609610
1305031907.842984 0.107765 7.914769 -6.609610
1305031907.844220 0.107765 7.914769 -6.609610
1305031907.845228 0.107765 7.914769 -6.609610
1305031907.848343 0.059870 8.106352 -6.465923
1305031907.849393 0.059870 8.106352 -6.465923
1305031907.852949 -0.083818 8.393726 -6.082757
1305031907.854076 -0.083818 8.393726 -6.082757
1305031907.857198 -0.083818 8.405700 -6.274340
1305031907.858185 -0.083818 8.405700 -6.274340
1305031907.861836 0.095791 8.585309 -6.082757
1305031907.862799 0.095791 8.585309 -6.082757
1305031907.864065 0.095791 8.585309 -6.082757
1305031907.865187 0.095791 8.585309 -6.082757
1305031907.868202 -0.083818 8.681100 -5.891174
1305031907.869355 -0.083818 8.681100 -5.891174
1305031907.872939 0.107765 8.585309 -5.891174
1305031907.874012 0.107765 8.585309 -5.891174
1305031907.877202 0.107765 8.585309 -6.082757
1305031907.878217 0.107765 8.585309 -6.082757
1305031907.881865 0.191583 8.585309 -6.322236
1305031907.882794 0.191583 8.585309 -6.322236
1305031907.884061 0.191583 8.585309 -6.322236
1305031907.885186 0.191583 8.585309 -6.322236
1305031907.888227 0.119739 8.393726 -6.274340
1305031907.889301 0.119739 8.393726 -6.274340
1305031907.892953 0.191583 8.202143 -6.274340
1305031907.893928 0.191583 8.202143 -6.274340
1305031907.897184 0.143687 8.202143 -6.274340
1305031907.898172 0.143687 8.202143 -6.274340
1305031907.899439 0.143687 8.202143 -6.274340
1305031907.900808 0.143687 8.202143 -6.274340
1305031907.904077 0.287374 7.914769 -6.465923
1305031907.905075 0.287374 7.914769 -6.465923
1305031907.908200 0.119739 7.818977 -6.274340
1305031907.909328 0.119739 7.818977 -6.274340
1305031907.912973 0.287374 7.627394 -6.370132
1305031907.913936 0.287374 7.627394 -6.370132
1305031907.917196 0.478957 7.435812 -6.274340
1305031907.918210 0.478957 7.435812 -6.274340
1305031907.921826 0.395140 7.435812 -6.274340
1305031907.922802 0.395140 7.435812 -6.274340
1305031907.924079 0.395140 7.435812 -6.274340
1305031907.925212 0.395140 7.435812 -6.274340
1305031907.928357 0.478957 7.531603 -5.939070
1305031907.929312 0.478957 7.531603 -5.939070
1305031907.933061 0.478957 7.244229 -6.082757
1305031907.934058 0.478957 7.244229 -6.082757
1305031907.937208 0.526853 7.268176 -5.891174
1305031907.938339 0.526853 7.268176 -5.891174
1305031907.941970 0.478957 7.435812 -5.699591
1305031907.942967 0.478957 7.435812 -5.699591
1305031907.944080 0.478957 7.435812 -5.699591
1305031907.945221 0.478957 7.435812 -5.699591
1305031907.948237 0.526853 7.579499 -5.939070
1305031907.949367 0.526853 7.579499 -5.939070
1305031907.952935 0.478957 7.531603 -6.082757
1305031907.953977 0.478957 7.531603 -6.082757
1305031907.957215 0.466983 7.435812 -6.082757
1305031907.958199 0.466983 7.435812 -6.082757
1305031907.961809 0.478957 7.292124 -6.274340
1305031907.962820 0.478957 7.292124 -6.274340
1305031907.964059 0.478957 7.292124 -6.274340
1305031907.965175 0.478957 7.292124 -6.274340
1305031907.968345 0.574749 7.244229 -6.370132
1305031907.969325 0.574749 7.244229 -6.370132
1305031907.972927 0.526853 7.196333 -6.298288
1305031907.973975 0.526853 7.196333 -6.298288
1305031907.977347 0.478957 6.908959 -6.657506
1305031907.978349 0.478957 6.908959 -6.657506
1305031907.982005 0.526853 6.861063 -6.849089
1305031907.982930 0.526853 6.861063 -6.849089
1305031907.984210 0.526853 6.861063 -6.849089
1305031907.985185 0.526853 6.861063 -6.849089
1305031907.988199 0.478957 6.861063 -6.849089
1305031907.989340 0.478957 6.861063 -6.849089
1305031907.992815 0.443035 6.861063 -6.849089
1305031907.993822 0.443035 6.861063 -6.849089
1305031907.997100 0.490931 6.861063 -6.992776
1305031907.998055 0.490931 6.861063 -6.992776
1305031907.999304 0.490931 6.861063 -6.992776
1305031908.000310 0.490931 6.861063 -6.992776
1305031908.003933 0.490931 6.837115 -7.040672
1305031908.005060 0.490931 6.837115 -7.040672
1305031908.008343 0.490931 7.052646 -6.753297
1305031908.009469 0.490931 7.052646 -6.753297
1305031908.012933 0.478957 7.148437 -6.657506
1305031908.014132 0.478957 7.148437 -6.657506
1305031908.017228 0.574749 7.244229 -6.561715
1305031908.018227 0.574749 7.244229 -6.561715
1305031908.021827 0.478957 7.256203 -6.465923
1305031908.022814 0.478957 7.256203 -6.465923
1305031908.024078 0.478957 7.256203 -6.465923
1305031908.025233 0.478957 7.256203 -6.465923
1305031908.028311 0.478957 7.435812 -6.226444
1305031908.029307 0.478957 7.435812 -6.226444
1305031908.032989 0.574749 7.435812 -6.274340
1305031908.033933 0.574749 7.435812 -6.274340
1305031908.037256 0.682514 7.531603 -6.274340
1305031908.038201 0.682514 7.531603 -6.274340
1305031908.041867 0.574749 7.435812 -6.274340
1305031908.042969 0.574749 7.435812 -6.274340
1305031908.044078 0.574749 7.435812 -6.274340
1305031908.045223 0.574749 7.435812 -6.274340
1305031908.048206 0.287374 7.220281 -6.178549
1305031908.049344 0.287374 7.220281 -6.178549
1305031908.052956 0.395140 7.148437 -6.274340
1305031908.053978 0.395140 7.148437 -6.274340
1305031908.057200 0.478957 6.956854 -6.274340
1305031908.058218 0.478957 6.956854 -6.274340
1305031908.061805 0.287374 6.956854 -6.298288
1305031908.062798 0.287374 6.956854 -6.298288
1305031908.064054 0.287374 6.956854 -6.298288
1305031908.065053 0.287374 6.956854 -6.298288
1305031908.068344 0.443035 6.861063 -6.657506
1305031908.069324 0.443035 6.861063 -6.657506
1305031908.072916 0.478957 6.861063 -6.657506
1305031908.073971 0.478957 6.861063 -6.657506
1305031908.077256 0.478957 6.861063 -6.705402
1305031908.078218 0.478957 6.861063 -6.705402
1305031908.081828 0.466983 6.669480 -6.753297
1305031908.082800 0.466983 6.669480 -6.753297
1305031908.084080 0.466983 6.669480 -6.753297
1305031908.085220 0.466983 6.669480 -6.753297
1305031908.088197 0.478957 6.669480 -6.657506
1305031908.089365 0.478957 6.669480 -6.657506
1305031908.092806 0.478957 6.573688 -6.849089
1305031908.093938 0.478957 6.573688 -6.849089
1305031908.097214 0.682514 6.489871 -7.040672
1305031908.098180 0.682514 6.489871 -7.040672
1305031908.099720 0.682514 6.489871 -7.040672
1305031908.102951 0.574749 6.669480 -6.849089
1305031908.104093 0.574749 6.669480 -6.849089
1305031908.107251 0.778306 6.765271 -6.849089
1305031908.108246 0.778306 6.765271 -6.849089
1305031908.111844 0.682514 6.837115 -6.681454
1305031908.112928 0.682514 6.837115 -6.681454
1305031908.114114 0.682514 6.837115 -6.681454
1305031908.115223 0.682514 6.837115 -6.681454
1305031908.118381 0.682514 6.669480 -6.849089
1305031908.119325 0.682514 6.669480 -6.849089
1305031908.122950 0.826201 6.765271 -6.657506
1305031908.124094 0.826201 6.765271 -6.657506
1305031908.127183 0.682514 6.861063 -6.753297
1305031908.128222 0.682514 6.861063 -6.753297
1305031908.131690 0.682514 6.861063 -6.657506
1305031908.133041 0.682514 6.861063 -6.657506
1305031908.133932 0.682514 6.861063 -6.657506
1305031908.137217 0.682514 6.885011 -6.657506
1305031908.138344 0.682514 6.885011 -6.657506
1305031908.141858 0.478957 6.885011 -6.657506
1305031908.142837 0.478957 6.885011 -6.657506
1305031908.144136 0.478957 6.885011 -6.657506
1305031908.145222 0.478957 6.885011 -6.657506
1305031908.148390 0.682514 6.956854 -6.657506
1305031908.149368 0.682514 6.956854 -6.657506
1305031908.152964 0.574749 6.861063 -6.561715
1305031908.153981 0.574749 6.861063 -6.561715
1305031908.157230 0.478957 6.861063 -6.465923
1305031908.158208 0.478957 6.861063 -6.465923
1305031908.161816 0.574749 6.861063 -6.274340
1305031908.162801 0.574749 6.861063 -6.274340
1305031908.164057 0.574749 6.861063 -6.274340
1305031908.165053 0.574749 6.861063 -6.274340
1305031908.168355 0.478957 7.052646 -5.903148
1305031908.169338 0.478957 7.052646 -5.903148
1305031908.172962 0.478957 7.148437 -5.986966
1305031908.173976 0.478957 7.148437 -5.986966
1305031908.177208 0.478957 7.244229 -5.843279
1305031908.178385 0.478957 7.244229 -5.843279
1305031908.181958 0.287374 7.292124 -5.603800
1305031908.182962 0.287374 7.292124 -5.603800
1305031908.184080 0.287374 7.292124 -5.603800
1305031908.185222 0.287374 7.292124 -5.603800
1305031908.188198 0.107765 7.435812 -5.412217
1305031908.189343 0.107765 7.435812 -5.412217
1305031908.193018 0.107765 7.531603 -5.316426
1305031908.193936 0.107765 7.531603 -5.316426
1305031908.197224 0.095791 7.627394 -5.124843
1305031908.198184 0.095791 7.627394 -5.124843
1305031908.201847 0.107765 7.675290 -5.172738
1305031908.202813 0.107765 7.675290 -5.172738
1305031908.204082 0.107765 7.675290 -5.172738
1305031908.205075 0.107765 7.675290 -5.172738
1305031908.208343 0.287374 7.627394 -5.412217
1305031908.209344 0.287374 7.627394 -5.412217
1305031908.212937 0.107765 7.723186 -5.508009
1305031908.213977 0.107765 7.723186 -5.508009
1305031908.217218 0.191583 7.435812 -5.508009
1305031908.218200 0.191583 7.435812 -5.508009
1305031908.221830 0.191583 7.268176 -5.699591
1305031908.222993 0.191583 7.268176 -5.699591
1305031908.224134 0.191583 7.268176 -5.699591
1305031908.225220 0.191583 7.268176 -5.699591
1305031908.228358 0.287374 6.956854 -5.986966
1305031908.229443 0.287374 6.956854 -5.986966
1305031908.233066 0.395140 6.669480 -6.274340
1305031908.234062 0.395140 6.669480 -6.274340
1305031908.237233 0.107765 6.525793 -6.657506
1305031908.238204 0.107765 6.525793 -6.657506
1305031908.242008 0.191583 6.501845 -6.657506
1305031908.242804 0.191583 6.501845 -6.657506
1305031908.244082 0.191583 6.501845 -6.657506
1305031908.245218 0.191583 6.501845 -6.657506
1305031908.248385 0.107765 6.477897 -6.849089
1305031908.249328 0.107765 6.477897 -6.849089
1305031908.252931 0.107765 6.489871 -6.849089
1305031908.253981 0.107765 6.489871 -6.849089
1305031908.257219 0.107765 6.669480 -6.849089
1305031908.258220 0.107765 6.669480 -6.849089
1305031908.261814 0.083818 6.813167 -6.705402
1305031908.262805 0.083818 6.813167 -6.705402
1305031908.264059 0.083818 6.813167 -6.705402
1305031908.265055 0.083818 6.813167 -6.705402
1305031908.268238 -0.083818 6.861063 -6.753297
1305031908.269353 -0.083818 6.861063 -6.753297
1305031908.272931 -0.083818 7.052646 -6.609610
1305031908.273956 -0.083818 7.052646 -6.609610
1305031908.277210 -0.191583 7.244229 -6.465923
1305031908.278345 -0.191583 7.244229 -6.465923
1305031908.281808 -0.263426 7.340020 -6.657506
1305031908.282993 -0.263426 7.340020 -6.657506
1305031908.284231 -0.263426 7.340020 -6.657506
1305031908.285227 -0.263426 7.340020 -6.657506
1305031908.288359 -0.083818 7.579499 -6.609610
1305031908.289332 -0.083818 7.579499 -6.609610
1305031908.292948 -0.191583 7.723186 -6.274340
1305031908.293935 -0.191583 7.723186 -6.274340
1305031908.297200 -0.191583 7.675290 -6.274340
1305031908.298200 -0.191583 7.675290 -6.274340
1305031908.299731 -0.191583 7.675290 -6.274340
1305031908.300791 -0.191583 7.675290 -6.274340
1305031908.304101 -0.275400 7.627394 -6.370132
1305031908.305237 -0.275400 7.627394 -6.370132
1305031908.308372 0.011974 7.818977 -6.274340
1305031908.309346 0.011974 7.818977 -6.274340
1305031908.312945 0.095791 7.818977 -6.370132
1305031908.314001 0.095791 7.818977 -6.370132
1305031908.317222 0.095791 7.818977 -6.465923
1305031908.318225 0.095791 7.818977 -6.465923
1305031908.321876 0.095791 7.818977 -6.465923
1305031908.322812 0.095791 7.818977 -6.465923
1305031908.323868 0.095791 7.818977 -6.465923
1305031908.327214 0.107765 7.627394 -6.370132
1305031908.328223 0.107765 7.627394 -6.370132
1305031908.331810 0.095791 7.603447 -6.561715
1305031908.332968 0.095791 7.603447 -6.561715
1305031908.334063 0.095791 7.603447 -6.561715
1305031908.335047 0.095791 7.603447 -6.561715
1305031908.338352 0.287374 7.531603 -6.609610
1305031908.339346 0.287374 7.531603 -6.609610
1305031908.342978 0.119739 7.531603 -6.370132
1305031908.343959 0.119739 7.531603 -6.370132
1305031908.347200 0.143687 7.256203 -6.609610
1305031908.348219 0.143687 7.256203 -6.609610
1305031908.351995 0.095791 7.435812 -6.274340
1305031908.352935 0.095791 7.435812 -6.274340
1305031908.354219 0.095791 7.435812 -6.274340
1305031908.355231 0.095791 7.435812 -6.274340
1305031908.358329 0.107765 7.196333 -6.465923
1305031908.359368 0.107765 7.196333 -6.465923
1305031908.362936 0.095791 7.052646 -6.370132
1305031908.363934 0.095791 7.052646 -6.370132
1305031908.367193 0.059870 7.052646 -6.274340
1305031908.368222 0.059870 7.052646 -6.274340
1305031908.371878 -0.083818 6.885011 -6.465923
1305031908.372934 -0.083818 6.885011 -6.465923
1305031908.374209 -0.083818 6.885011 -6.465923
1305031908.375206 -0.083818 6.885011 -6.465923
1305031908.378358 -0.275400 7.052646 -6.609610
1305031908.379344 -0.275400 7.052646 -6.609610
1305031908.382956 -0.275400 6.956854 -6.465923
1305031908.384006 -0.275400 6.956854 -6.465923
1305031908.387227 -0.275400 7.052646 -6.633558
1305031908.388218 -0.275400 7.052646 -6.633558
1305031908.391893 -0.275400 7.244229 -6.561715
1305031908.392980 -0.275400 7.244229 -6.561715
1305031908.394062 -0.275400 7.244229 -6.561715
1305031908.395175 -0.275400 7.244229 -6.561715
1305031908.398342 -0.275400 7.627394 -6.370132
1305031908.399308 -0.275400 7.627394 -6.370132
1305031908.402969 -0.275400 7.723186 -6.633558
1305031908.403957 -0.275400 7.723186 -6.633558
1305031908.407174 -0.263426 7.818977 -6.657506
1305031908.408225 -0.263426 7.818977 -6.657506
1305031908.411849 -0.191583 8.106352 -6.465923
1305031908.412812 -0.191583 8.106352 -6.465923
1305031908.414117 -0.191583 8.106352 -6.465923
1305031908.415221 -0.191583 8.106352 -6.465923
1305031908.418349 0.059870 8.202143 -6.657506
1305031908.419328 0.059870 8.202143 -6.657506
1305031908.422970 0.107765 8.106352 -6.753297
1305031908.423983 0.107765 8.106352 -6.753297
1305031908.427246 0.107765 8.034508 -6.561715
1305031908.428223 0.107765 8.034508 -6.561715
1305031908.431823 0.143687 8.010560 -6.849089
1305031908.432999 0.143687 8.010560 -6.849089
1305031908.433973 0.143687 8.010560 -6.849089
1305031908.437222 0.095791 7.723186 -6.657506
1305031908.438204 0.095791 7.723186 -6.657506
1305031908.441858 0.011974 7.627394 -6.657506
1305031908.442836 0.011974 7.627394 -6.657506
1305031908.444141 0.011974 7.627394 -6.657506
1305031908.445219 0.011974 7.627394 -6.657506
1305031908.448321 0.107765 7.340020 -6.753297
1305031908.449347 0.107765 7.340020 -6.753297
1305031908.452939 0.095791 7.340020 -6.705402
1305031908.453984 0.095791 7.340020 -6.705402
1305031908.457222 0.107765 7.244229 -6.849089
1305031908.458204 0.107765 7.244229 -6.849089
1305031908.461848 0.107765 7.292124 -6.849089
1305031908.462803 0.107765 7.292124 -6.849089
1305031908.464070 0.107765 7.292124 -6.849089
1305031908.465183 0.107765 7.292124 -6.849089
1305031908.468351 0.095791 7.627394 -6.753297
1305031908.469355 0.095791 7.627394 -6.753297
1305031908.472944 0.107765 7.675290 -6.753297
1305031908.474012 0.107765 7.675290 -6.753297
1305031908.477205 0.287374 7.651342 -6.849089
1305031908.478348 0.287374 7.651342 -6.849089
1305031908.482015 0.395140 7.818977 -6.849089
1305031908.482990 0.395140 7.818977 -6.849089
1305031908.484223 0.395140 7.818977 -6.849089
1305031908.485203 0.395140 7.818977 -6.849089
1305031908.488394 0.526853 7.818977 -7.064620
1305031908.489350 0.526853 7.818977 -7.064620
1305031908.493051 0.682514 7.675290 -7.040672
1305031908.493949 0.682514 7.675290 -7.040672
1305031908.497359 0.850149 7.986612 -6.753297
1305031908.498321 0.850149 7.986612 -6.753297
1305031908.501968 0.826201 7.914769 -6.992776
1305031908.502945 0.826201 7.914769 -6.992776
1305031908.504223 0.826201 7.914769 -6.992776
1305031908.505192 0.826201 7.914769 -6.992776
1305031908.508375 0.862123 8.010560 -6.944880
1305031908.509366 0.862123 8.010560 -6.944880
1305031908.512953 1.053706 8.010560 -6.944880
1305031908.514008 1.053706 8.010560 -6.944880
1305031908.517088 0.886071 7.998586 -6.849089
1305031908.518232 0.886071 7.998586 -6.849089
1305031908.519347 0.886071 7.998586 -6.849089
1305031908.520499 0.886071 7.998586 -6.849089
1305031908.524017 0.862123 7.818977 -6.657506
1305031908.525096 0.862123 7.818977 -6.657506
1305031908.528205 0.682514 7.675290 -6.465923
1305031908.529304 0.682514 7.675290 -6.465923
1305031908.532962 0.778306 7.818977 -6.561715
1305031908.533942 0.778306 7.818977 -6.561715
1305031908.537208 0.778306 7.627394 -6.657506
1305031908.538225 0.778306 7.627394 -6.657506
1305031908.539329 0.778306 7.627394 -6.657506
1305031908.540563 0.778306 7.627394 -6.657506
1305031908.544096 0.682514 7.435812 -6.657506
1305031908.545100 0.682514 7.435812 -6.657506
1305031908.548378 0.682514 7.531603 -6.753297
1305031908.549350 0.682514 7.531603 -6.753297
1305031908.552940 0.682514 7.579499 -6.657506
1305031908.553974 0.682514 7.579499 -6.657506
1305031908.557220 0.778306 7.435812 -7.040672
1305031908.558357 0.778306 7.435812 -7.040672
1305031908.561816 0.850149 7.244229 -7.136463
1305031908.562942 0.850149 7.244229 -7.136463
1305031908.564071 0.850149 7.244229 -7.136463
1305031908.565188 0.850149 7.244229 -7.136463
1305031908.568350 0.874097 7.244229 -7.423838
1305031908.569332 0.874097 7.244229 -7.423838
1305031908.572945 0.957915 7.196333 -7.471733
1305031908.573987 0.957915 7.196333 -7.471733
1305031908.577207 0.910019 7.148437 -7.807003
1305031908.578346 0.910019 7.148437 -7.807003
1305031908.581959 0.862123 7.052646 -8.094378
1305031908.582974 0.862123 7.052646 -8.094378
1305031908.584092 0.862123 7.052646 -8.094378
1305031908.585224 0.862123 7.052646 -8.094378
1305031908.588374 0.886071 6.873037 -8.190169
1305031908.589385 0.886071 6.873037 -8.190169
1305031908.592984 0.862123 6.861063 -8.190169
1305031908.593947 0.862123 6.861063 -8.190169
1305031908.597231 0.910019 6.849089 -7.998586
1305031908.598187 0.910019 6.849089 -7.998586
1305031908.601818 0.862123 6.765271 -8.094378
1305031908.602794 0.862123 6.765271 -8.094378
1305031908.604100 0.862123 6.765271 -8.094378
1305031908.605196 0.862123 6.765271 -8.094378
1305031908.608347 0.910019 6.573688 -7.902795
1305031908.609345 0.910019 6.573688 -7.902795
1305031908.612983 0.910019 6.477897 -7.783056
1305031908.613983 0.910019 6.477897 -7.783056
1305031908.617205 1.053706 6.573688 -7.423838
1305031908.618350 1.053706 6.573688 -7.423838
1305031908.621845 1.053706 6.525793 -7.423838
1305031908.622853 1.053706 6.525793 -7.423838
1305031908.624109 1.053706 6.525793 -7.423838
1305031908.625219 1.053706 6.525793 -7.423838
1305031908.628328 0.862123 6.765271 -7.232255
1305031908.629314 0.862123 6.765271 -7.232255
1305031908.632932 0.862123 6.669480 -7.088568
1305031908.633939 0.862123 6.669480 -7.088568
1305031908.637208 0.862123 6.861063 -7.232255
1305031908.638233 0.862123 6.861063 -7.232255
1305031908.641858 0.874097 6.861063 -7.136463
1305031908.643001 0.874097 6.861063 -7.136463
1305031908.644082 0.874097 6.861063 -7.136463
1305031908.645079 0.874097 6.861063 -7.136463
1305031908.648394 1.053706 6.861063 -7.423838
1305031908.649373 1.053706 6.861063 -7.423838
1305031908.652941 1.257263 7.148437 -7.519629
1305031908.654096 1.257263 7.148437 -7.519629
1305031908.657324 1.053706 7.052646 -7.759108
1305031908.658349 1.053706 7.052646 -7.759108
1305031908.661819 0.862123 6.861063 -7.795029
1305031908.662930 0.862123 6.861063 -7.795029
1305031908.664061 0.862123 6.861063 -7.795029
1305031908.665177 0.862123 6.861063 -7.795029
1305031908.668346 0.862123 6.765271 -7.998586
1305031908.669331 0.862123 6.765271 -7.998586
1305031908.672952 0.862123 6.861063 -8.178195
1305031908.673977 0.862123 6.861063 -8.178195
1305031908.677206 0.862123 6.861063 -8.381752
1305031908.678348 0.862123 6.861063 -8.381752
1305031908.681978 0.862123 6.837115 -8.669126
1305031908.683001 0.862123 6.837115 -8.669126
1305031908.684252 0.862123 6.837115 -8.669126
1305031908.685224 0.862123 6.837115 -8.669126
1305031908.688387 1.053706 7.052646 -9.339667
1305031908.689369 1.053706 7.052646 -9.339667
1305031908.692954 1.053706 7.435812 -9.243875
1305031908.694064 1.053706 7.435812 -9.243875
1305031908.697222 0.957915 7.244229 -9.339667
1305031908.698316 0.957915 7.244229 -9.339667
1305031908.701852 0.957915 7.244229 -9.315719
1305031908.702804 0.957915 7.244229 -9.315719
1305031908.704112 0.957915 7.244229 -9.315719
1305031908.705226 0.957915 7.244229 -9.315719
1305031908.708329 1.257263 7.244229 -9.339667
1305031908.709362 1.257263 7.244229 -9.339667
1305031908.712937 1.448846 7.244229 -9.339667
1305031908.713960 1.448846 7.244229 -9.339667
1305031908.717235 1.257263 7.292124 -8.968475
1305031908.718348 1.257263 7.292124 -8.968475
1305031908.721860 1.209367 7.148437 -8.956501
1305031908.722813 1.209367 7.148437 -8.956501
1305031908.724136 1.209367 7.148437 -8.956501
1305031908.725226 1.209367 7.148437 -8.956501
1305031908.728354 1.209367 7.244229 -8.764918
1305031908.729313 1.209367 7.244229 -8.764918
1305031908.732999 1.209367 7.052646 -8.956501
1305031908.733942 1.209367 7.052646 -8.956501
1305031908.737258 1.257263 6.861063 -8.956501
1305031908.738245 1.257263 6.861063 -8.956501
1305031908.741948 1.257263 6.908959 -8.573335
1305031908.742974 1.257263 6.908959 -8.573335
1305031908.744209 1.257263 6.908959 -8.573335
1305031908.745209 1.257263 6.908959 -8.573335
1305031908.748350 1.257263 6.861063 -8.573335
1305031908.749350 1.257263 6.861063 -8.573335
1305031908.752942 1.257263 6.765271 -8.381752
1305031908.753994 1.257263 6.765271 -8.381752
1305031908.757224 1.053706 6.765271 -8.597283
1305031908.758350 1.053706 6.765271 -8.597283
1305031908.761822 0.862123 6.861063 -8.573335
1305031908.762808 0.862123 6.861063 -8.573335
1305031908.764060 0.862123 6.861063 -8.573335
1305031908.765068 0.862123 6.861063 -8.573335
1305031908.768337 0.874097 7.196333 -8.573335
1305031908.769331 0.874097 7.196333 -8.573335
1305031908.772961 0.957915 7.244229 -8.621231
1305031908.773962 0.957915 7.244229 -8.621231
1305031908.777258 0.886071 7.244229 -8.585309
1305031908.778201 0.886071 7.244229 -8.585309
1305031908.781830 0.862123 7.292124 -8.669126
1305031908.782836 0.862123 7.292124 -8.669126
1305031908.784125 0.862123 7.292124 -8.669126
1305031908.785222 0.862123 7.292124 -8.669126
1305031908.788347 0.778306 7.579499 -8.573335
1305031908.789377 0.778306 7.579499 -8.573335
1305031908.792982 0.850149 7.627394 -8.381752
1305031908.793978 0.850149 7.627394 -8.381752
1305031908.797381 0.862123 7.627394 -8.573335
1305031908.798186 0.862123 7.627394 -8.573335
1305031908.801816 0.682514 7.675290 -8.285961
1305031908.802934 0.682514 7.675290 -8.285961
1305031908.804222 0.682514 7.675290 -8.285961
1305031908.805195 0.682514 7.675290 -8.285961
1305031908.808351 0.682514 7.723186 -7.998586
1305031908.809333 0.682514 7.723186 -7.998586
1305031908.812942 0.682514 7.627394 -7.807003
1305031908.813977 0.682514 7.627394 -7.807003
1305031908.817242 0.862123 7.627394 -7.807003
1305031908.818219 0.862123 7.627394 -7.807003
1305031908.821858 0.862123 7.627394 -7.615421
1305031908.822804 0.862123 7.627394 -7.615421
1305031908.824144 0.862123 7.627394 -7.615421
1305031908.825121 0.862123 7.627394 -7.615421
1305031908.828359 0.862123 7.627394 -7.423838
1305031908.829314 0.862123 7.627394 -7.423838
1305031908.832943 0.862123 7.627394 -7.375942
1305031908.833941 0.862123 7.627394 -7.375942
1305031908.837258 0.862123 7.579499 -7.040672
1305031908.838357 0.862123 7.579499 -7.040672
1305031908.841831 1.053706 7.340020 -7.136463
1305031908.842816 1.053706 7.340020 -7.136463
1305031908.844119 1.053706 7.340020 -7.136463
1305031908.845223 1.053706 7.340020 -7.136463
1305031908.848324 1.053706 7.244229 -7.064620
1305031908.849353 1.053706 7.244229 -7.064620
1305031908.853135 1.245289 6.861063 -7.399890
1305031908.854099 1.245289 6.861063 -7.399890
1305031908.857348 1.257263 6.477897 -7.232255
1305031908.858359 1.257263 6.477897 -7.232255
1305031908.861815 1.053706 6.525793 -7.040672
1305031908.862934 1.053706 6.525793 -7.040672
1305031908.864062 1.053706 6.525793 -7.040672
1305031908.865178 1.053706 6.525793 -7.040672
1305031908.868195 1.053706 6.430001 -7.136463
1305031908.869334 1.053706 6.430001 -7.136463
1305031908.872975 0.862123 6.669480 -6.849089
1305031908.874101 0.862123 6.669480 -6.849089
1305031908.877258 1.053706 6.813167 -6.849089
1305031908.878225 1.053706 6.813167 -6.849089
1305031908.881850 1.257263 6.765271 -7.040672
1305031908.882849 1.257263 6.765271 -7.040672
1305031908.884143 1.257263 6.765271 -7.040672
1305031908.885085 1.257263 6.765271 -7.040672
1305031908.888397 1.053706 7.052646 -7.040672
1305031908.889352 1.053706 7.052646 -7.040672
1305031908.892956 1.053706 6.861063 -6.944880
1305031908.893977 1.053706 6.861063 -6.944880
1305031908.897236 0.910019 6.861063 -7.040672
1305031908.898191 0.910019 6.861063 -7.040672
1305031908.901817 1.053706 6.861063 -7.016724
1305031908.902812 1.053706 6.861063 -7.016724
1305031908.904109 1.053706 6.861063 -7.016724
1305031908.905229 1.053706 6.861063 -7.016724
1305031908.908206 1.233315 7.052646 -7.040672
1305031908.909352 1.233315 7.052646 -7.040672
1305031908.912849 1.209367 7.148437 -7.136463
1305031908.913977 1.209367 7.148437 -7.136463
1305031908.917255 1.269237 7.052646 -7.423838
1305031908.918208 1.269237 7.052646 -7.423838
1305031908.919493 1.269237 7.052646 -7.423838
1305031908.920826 1.269237 7.052646 -7.423838
1305031908.924142 1.269237 7.148437 -7.435812
1305031908.925100 1.269237 7.148437 -7.435812
1305031908.928363 1.161471 7.220281 -7.136463
1305031908.929330 1.161471 7.220281 -7.136463
1305031908.932950 1.053706 7.196333 -7.040672
1305031908.933941 1.053706 7.196333 -7.040672
1305031908.937222 1.053706 6.908959 -6.849089
1305031908.938400 1.053706 6.908959 -6.849089
1305031908.941833 1.053706 6.861063 -6.753297
1305031908.942799 1.053706 6.861063 -6.753297
1305031908.944088 1.053706 6.861063 -6.753297
1305031908.945229 1.053706 6.861063 -6.753297
1305031908.948212 1.257263 6.861063 -6.753297
1305031908.949351 1.257263 6.861063 -6.753297
1305031908.952953 1.448846 6.861063 -6.657506
1305031908.953979 1.448846 6.861063 -6.657506
1305031908.957223 1.448846 7.052646 -6.849089
1305031908.958208 1.448846 7.052646 -6.849089
1305031908.959729 1.448846 7.052646 -6.849089
1305031908.960834 1.448846 7.052646 -6.849089
1305031908.964099 1.341080 6.489871 -6.944880
1305031908.965181 1.341080 6.489871 -6.944880
1305031908.968285 1.269237 6.477897 -6.944880
1305031908.969363 1.269237 6.477897 -6.944880
1305031908.972980 1.544637 6.286314 -7.040672
1305031908.974001 1.544637 6.286314 -7.040672
1305031908.977211 1.448846 6.190523 -6.944880
1305031908.978212 1.448846 6.190523 -6.944880
1305031908.981853 1.341080 6.106705 -7.040672
1305031908.982836 1.341080 6.106705 -7.040672
1305031908.984143 1.341080 6.106705 -7.040672
1305031908.985225 1.341080 6.106705 -7.040672
1305031908.988331 1.544637 6.094731 -7.064620
1305031908.989391 1.544637 6.094731 -7.064620
1305031908.992961 1.628455 6.190523 -7.040672
1305031908.994019 1.628455 6.190523 -7.040672
1305031908.997237 1.293185 6.094731 -7.040672
1305031908.998188 1.293185 6.094731 -7.040672
1305031909.001816 1.293185 6.094731 -7.016724
1305031909.002807 1.293185 6.094731 -7.016724
1305031909.003855 1.293185 6.094731 -7.016724
1305031909.007174 1.257263 6.286314 -6.849089
1305031909.008212 1.257263 6.286314 -6.849089
1305031909.011876 1.448846 6.382106 -6.849089
1305031909.012818 1.448846 6.382106 -6.849089
1305031909.014108 1.448846 6.382106 -6.849089
1305031909.015080 1.448846 6.382106 -6.849089
1305031909.018335 1.257263 6.669480 -6.465923
1305031909.019487 1.257263 6.669480 -6.465923
1305031909.022979 1.257263 6.908959 -6.657506
1305031909.023938 1.257263 6.908959 -6.657506
1305031909.027225 1.293185 6.956854 -6.657506
1305031909.028214 1.293185 6.956854 -6.657506
1305031909.031860 1.257263 7.148437 -6.753297
1305031909.032806 1.257263 7.148437 -6.753297
1305031909.033814 1.257263 7.148437 -6.753297
1305031909.037225 1.257263 7.052646 -7.040672
1305031909.038210 1.257263 7.052646 -7.040672
1305031909.041977 1.341080 6.861063 -7.328046
1305031909.042974 1.341080 6.861063 -7.328046
1305031909.044228 1.341080 6.861063 -7.328046
1305031909.045231 1.341080 6.861063 -7.328046
1305031909.048363 1.293185 6.501845 -7.807003
1305031909.049461 1.293185 6.501845 -7.807003
1305031909.052956 1.448846 6.430001 -7.902795
1305031909.054102 1.448846 6.430001 -7.902795
1305031909.057333 1.448846 6.142627 -8.094378
1305031909.058347 1.448846 6.142627 -8.094378
1305031909.061820 1.341080 6.094731 -7.998586
1305031909.062946 1.341080 6.094731 -7.998586
1305031909.064065 1.341080 6.094731 -7.998586
1305031909.065186 1.341080 6.094731 -7.998586
1305031909.068213 1.053706 6.094731 -7.902795
1305031909.069353 1.053706 6.094731 -7.902795
1305031909.072949 0.910019 6.190523 -7.411864
1305031909.073967 0.910019 6.190523 -7.411864
1305031909.077333 0.862123 6.430001 -7.040672
1305031909.078358 0.862123 6.430001 -7.040672
1305031909.082014 0.957915 6.477897 -6.849089
1305031909.083021 0.957915 6.477897 -6.849089
1305031909.084269 0.957915 6.477897 -6.849089
1305031909.085212 0.957915 6.477897 -6.849089
1305031909.088391 1.053706 6.861063 -6.370132
1305031909.089516 1.053706 6.861063 -6.370132
1305031909.093097 0.886071 7.244229 -6.178549
1305031909.094143 0.886071 7.244229 -6.178549
1305031909.097326 1.053706 7.435812 -5.891174
1305031909.098305 1.053706 7.435812 -5.891174
1305031909.101831 1.053706 7.579499 -5.699591
1305031909.102962 1.053706 7.579499 -5.699591
1305031909.104225 1.053706 7.579499 -5.699591
1305031909.105230 1.053706 7.579499 -5.699591
1305031909.108246 1.053706 7.675290 -5.699591
1305031909.109361 1.053706 7.675290 -5.699591
1305031909.112818 1.053706 7.818977 -5.699591
1305031909.113975 1.053706 7.818977 -5.699591
1305031909.117104 1.257263 7.818977 -5.699591
1305031909.118235 1.257263 7.818977 -5.699591
1305031909.119373 1.257263 7.818977 -5.699591
1305031909.120371 1.257263 7.818977 -5.699591
1305031909.124107 1.257263 7.651342 -6.178549
1305031909.125120 1.257263 7.651342 -6.178549
1305031909.128353 1.161471 7.723186 -6.465923
1305031909.129318 1.161471 7.723186 -6.465923
1305031909.132946 1.257263 7.340020 -6.849089
1305031909.134067 1.257263 7.340020 -6.849089
1305031909.137272 1.053706 7.244229 -6.849089
1305031909.138252 1.053706 7.244229 -6.849089
1305031909.141882 1.245289 7.148437 -7.136463
1305031909.142808 1.245289 7.148437 -7.136463
1305031909.144117 1.245289 7.148437 -7.136463
1305031909.145275 1.245289 7.148437 -7.136463
1305031909.148405 0.910019 6.956854 -7.423838
1305031909.149337 0.910019 6.956854 -7.423838
1305031909.152955 0.826201 6.861063 -7.328046
1305031909.154101 0.826201 6.861063 -7.328046
1305031909.157232 0.502905 6.861063 -7.040672
1305031909.158191 0.502905 6.861063 -7.040672
1305031909.161821 0.526853 6.669480 -6.849089
1305031909.162807 0.526853 6.669480 -6.849089
1305031909.164065 0.526853 6.669480 -6.849089
1305031909.165063 0.526853 6.669480 -6.849089
1305031909.168360 0.502905 6.956854 -6.370132
1305031909.169478 0.502905 6.956854 -6.370132
1305031909.172942 0.682514 7.052646 -6.322236
1305031909.174105 0.682514 7.052646 -6.322236
1305031909.177350 0.574749 7.292124 -5.986966
1305031909.178349 0.574749 7.292124 -5.986966
1305031909.181988 0.862123 7.268176 -6.082757
1305031909.182977 0.862123 7.268176 -6.082757
1305031909.184229 0.862123 7.268176 -6.082757
1305031909.185212 0.862123 7.268176 -6.082757
1305031909.188397 1.053706 7.435812 -5.891174
1305031909.189337 1.053706 7.435812 -5.891174
1305031909.192948 1.161471 7.435812 -5.843279
1305031909.193962 1.161471 7.435812 -5.843279
1305031909.197193 1.257263 7.244229 -5.939070
1305031909.198193 1.257263 7.244229 -5.939070
1305031909.201943 1.293185 7.052646 -6.082757
1305031909.202945 1.293185 7.052646 -6.082757
1305031909.204227 1.293185 7.052646 -6.082757
1305031909.205194 1.293185 7.052646 -6.082757
1305031909.208380 1.640429 6.908959 -6.274340
1305031909.209334 1.640429 6.908959 -6.274340
1305031909.212936 1.724246 6.861063 -6.274340
1305031909.213973 1.724246 6.861063 -6.274340
1305031909.217229 1.820038 6.861063 -6.465923
1305031909.218355 1.820038 6.861063 -6.465923
1305031909.221838 1.820038 6.573688 -6.465923
1305031909.222874 1.820038 6.573688 -6.465923
1305031909.224085 1.820038 6.573688 -6.465923
1305031909.225227 1.820038 6.573688 -6.465923
1305031909.228360 1.592533 6.382106 -6.465923
1305031909.229333 1.592533 6.382106 -6.465923
1305031909.233066 1.341080 6.142627 -6.465923
1305031909.233944 1.341080 6.142627 -6.465923
1305031909.237211 0.957915 6.286314 -6.370132
1305031909.238348 0.957915 6.286314 -6.370132
1305031909.241838 0.490931 6.286314 -6.298288
1305031909.242810 0.490931 6.286314 -6.298288
1305031909.244104 0.490931 6.286314 -6.298288
1305031909.245223 0.490931 6.286314 -6.298288
1305031909.248355 0.287374 6.525793 -6.274340
1305031909.249373 0.287374 6.525793 -6.274340
1305031909.252960 0.191583 6.861063 -6.082757
1305031909.254100 0.191583 6.861063 -6.082757
1305031909.257357 0.107765 7.148437 -5.891174
1305031909.258336 0.107765 7.148437 -5.891174
1305031909.261948 0.191583 7.435812 -5.795383
1305031909.262933 0.191583 7.435812 -5.795383
1305031909.264190 0.191583 7.435812 -5.795383
1305031909.265181 0.191583 7.435812 -5.795383
1305031909.268342 0.443035 7.914769 -5.795383
1305031909.269336 0.443035 7.914769 -5.795383
1305031909.272937 0.478957 8.010560 -5.699591
1305031909.273980 0.478957 8.010560 -5.699591
1305031909.277210 0.682514 8.393726 -5.699591
1305031909.278350 0.682514 8.393726 -5.699591
1305031909.282020 0.862123 8.489518 -5.603800
1305031909.282990 0.862123 8.489518 -5.603800
1305031909.284281 0.862123 8.489518 -5.603800
1305031909.285210 0.862123 8.489518 -5.603800
1305031909.288393 1.257263 8.585309 -5.891174
1305031909.289404 1.257263 8.585309 -5.891174
1305031909.292980 1.257263 8.776892 -5.699591
1305031909.294110 1.257263 8.776892 -5.699591
1305031909.297199 1.448846 8.585309 -5.699591
1305031909.298193 1.448846 8.585309 -5.699591
1305031909.301855 1.257263 8.585309 -5.316426
1305031909.302812 1.257263 8.585309 -5.316426
1305031909.304090 1.257263 8.585309 -5.316426
1305031909.305227 1.257263 8.585309 -5.316426
1305031909.308354 1.293185 8.297935 -4.741677
1305031909.309335 1.293185 8.297935 -4.741677
1305031909.312946 1.293185 8.058456 -4.406407
1305031909.313964 1.293185 8.058456 -4.406407
1305031909.317208 1.053706 8.010560 -4.023241
1305031909.318350 1.053706 8.010560 -4.023241
1305031909.321841 0.957915 8.010560 -3.783762
1305031909.322855 0.957915 8.010560 -3.783762
1305031909.324087 0.957915 8.010560 -3.783762
1305031909.325264 0.957915 8.010560 -3.783762
1305031909.328364 0.862123 8.010560 -3.592179
1305031909.329320 0.862123 8.010560 -3.592179
1305031909.332943 0.862123 8.010560 -3.592179
1305031909.333944 0.862123 8.010560 -3.592179
1305031909.337214 0.862123 8.010560 -3.592179
1305031909.338283 0.862123 8.010560 -3.592179
1305031909.341855 0.862123 8.010560 -3.783762
1305031909.342813 0.862123 8.010560 -3.783762
1305031909.344141 0.862123 8.010560 -3.783762
1305031909.345127 0.862123 8.010560 -3.783762
1305031909.348337 0.862123 8.381752 -3.879554
1305031909.349363 0.862123 8.381752 -3.879554
1305031909.352992 0.526853 8.393726 -3.927450
1305031909.354001 0.526853 8.393726 -3.927450
1305031909.357193 0.682514 8.489518 -3.975345
1305031909.358227 0.682514 8.489518 -3.975345
1305031909.359765 0.682514 8.489518 -3.975345
1305031909.360802 0.682514 8.489518 -3.975345
1305031909.364196 0.862123 8.681100 -4.741677
1305031909.365180 0.862123 8.681100 -4.741677
1305031909.368211 1.053706 8.776892 -4.933260
1305031909.369365 1.053706 8.776892 -4.933260
1305031909.372832 1.257263 9.112162 -5.124843
1305031909.373979 1.257263 9.112162 -5.124843
1305031909.377075 1.544637 9.148084 -5.124843
1305031909.378059 1.544637 9.148084 -5.124843
1305031909.379352 1.544637 9.148084 -5.124843
1305031909.380572 1.544637 9.148084 -5.124843
1305031909.384135 1.616481 9.064266 -5.555904
1305031909.385124 1.616481 9.064266 -5.555904
1305031909.388197 1.640429 8.968475 -5.795383
1305031909.389403 1.640429 8.968475 -5.795383
1305031909.392944 1.293185 8.776892 -5.939070
1305031909.393967 1.293185 8.776892 -5.939070
1305031909.397197 1.245289 8.681100 -6.274340
1305031909.398320 1.245289 8.681100 -6.274340
1305031909.401823 1.257263 8.393726 -6.274340
1305031909.402813 1.257263 8.393726 -6.274340
1305031909.404090 1.257263 8.393726 -6.274340
1305031909.405215 1.257263 8.393726 -6.274340
1305031909.408381 0.957915 8.297935 -6.465923
1305031909.409343 0.957915 8.297935 -6.465923
1305031909.413101 0.957915 7.962665 -6.849089
1305031909.414109 0.957915 7.962665 -6.849089
1305031909.417229 0.862123 8.010560 -7.040672
1305031909.418242 0.862123 8.010560 -7.040672
1305031909.421892 0.862123 8.010560 -6.944880
1305031909.422881 0.862123 8.010560 -6.944880
1305031909.424119 0.862123 8.010560 -6.944880
1305031909.425276 0.862123 8.010560 -6.944880
1305031909.428351 0.478957 8.010560 -6.465923
1305031909.429330 0.478957 8.010560 -6.465923
1305031909.432939 0.443035 8.010560 -6.178549
1305031909.433985 0.443035 8.010560 -6.178549
1305031909.437215 0.191583 7.986612 -5.939070
1305031909.438212 0.191583 7.986612 -5.939070
1305031909.441860 0.119739 8.010560 -5.699591
1305031909.442820 0.119739 8.010560 -5.699591
1305031909.444108 0.119739 8.010560 -5.699591
1305031909.445236 0.119739 8.010560 -5.699591
1305031909.448380 0.287374 7.818977 -5.316426
1305031909.449342 0.287374 7.818977 -5.316426
1305031909.453120 0.287374 7.818977 -4.789573
1305031909.454141 0.287374 7.818977 -4.789573
1305031909.457211 0.119739 7.818977 -4.741677
1305031909.458201 0.119739 7.818977 -4.741677
1305031909.461823 0.478957 7.627394 -4.550094
1305031909.462821 0.478957 7.627394 -4.550094
1305031909.464066 0.478957 7.627394 -4.550094
1305031909.465066 0.478957 7.627394 -4.550094
1305031909.468323 0.478957 7.723186 -4.454303
1305031909.469352 0.478957 7.723186 -4.454303
1305031909.472947 0.478957 7.627394 -4.358511
1305031909.474002 0.478957 7.627394 -4.358511
1305031909.477232 0.526853 7.627394 -4.454303
1305031909.478213 0.526853 7.627394 -4.454303
1305031909.481884 0.574749 7.627394 -4.454303
1305031909.482978 0.574749 7.627394 -4.454303
1305031909.484025 0.574749 7.627394 -4.454303
1305031909.487238 0.490931 7.818977 -4.693781
1305031909.488231 0.490931 7.818977 -4.693781
1305031909.491874 0.478957 8.010560 -4.741677
1305031909.492834 0.478957 8.010560 -4.741677
1305031909.494090 0.478957 8.010560 -4.741677
1305031909.495094 0.478957 8.010560 -4.741677
1305031909.498334 0.574749 8.202143 -4.933260
1305031909.499307 0.574749 8.202143 -4.933260
1305031909.502834 0.574749 8.393726 -5.100895
1305031909.503962 0.574749 8.393726 -5.100895
1305031909.507235 0.478957 8.489518 -5.112869
1305031909.508238 0.478957 8.489518 -5.112869
1305031909.511889 0.466983 8.776892 -5.100895
1305031909.512808 0.466983 8.776892 -5.100895
1305031909.513985 0.466983 8.776892 -5.100895
1305031909.517228 0.107765 8.728996 -5.076947
1305031909.518232 0.107765 8.728996 -5.076947
1305031909.521770 0.083818 8.872683 -5.124843
1305031909.522747 0.083818 8.872683 -5.124843
1305031909.524118 0.083818 8.872683 -5.124843
1305031909.525230 0.083818 8.872683 -5.124843
1305031909.528354 0.059870 8.585309 -5.124843
1305031909.529330 0.059870 8.585309 -5.124843
1305031909.532940 -0.083818 8.297935 -4.933260
1305031909.533944 -0.083818 8.297935 -4.933260
1305031909.537216 -0.083818 8.022534 -4.550094
1305031909.538231 -0.083818 8.022534 -4.550094
1305031909.541829 -0.191583 7.818977 -4.262720
1305031909.542881 -0.191583 7.818977 -4.262720
1305031909.544112 -0.191583 7.818977 -4.262720
1305031909.545087 -0.191583 7.818977 -4.262720
1305031909.548354 -0.191583 7.818977 -3.879554
1305031909.549491 -0.191583 7.818977 -3.879554
1305031909.553140 0.011974 7.723186 -3.400597
1305031909.554127 0.011974 7.723186 -3.400597
1305031909.557201 0.107765 7.723186 -3.256909
1305031909.558213 0.107765 7.723186 -3.256909
1305031909.561855 0.107765 7.962665 -3.209014
1305031909.562813 0.107765 7.962665 -3.209014
1305031909.564069 0.107765 7.962665 -3.209014
1305031909.565185 0.107765 7.962665 -3.209014
1305031909.568360 0.119739 8.202143 -2.825848
1305031909.569338 0.119739 8.202143 -2.825848
1305031909.572940 0.119739 8.393726 -3.017431
1305031909.573965 0.119739 8.393726 -3.017431
1305031909.577207 0.287374 8.489518 -2.825848
1305031909.578364 0.287374 8.489518 -2.825848
1305031909.582019 0.466983 8.585309 -2.801900
1305031909.582985 0.466983 8.585309 -2.801900
1305031909.584090 0.466983 8.585309 -2.801900
1305031909.585210 0.466983 8.585309 -2.801900
1305031909.588337 0.478957 8.728996 -2.825848
1305031909.589396 0.478957 8.728996 -2.825848
1305031909.592967 0.443035 8.872683 -2.825848
1305031909.593992 0.443035 8.872683 -2.825848
1305031909.597194 0.395140 9.064266 -2.538474
1305031909.598195 0.395140 9.064266 -2.538474
1305031909.601826 0.395140 9.160058 -2.442682
1305031909.602810 0.395140 9.160058 -2.442682
1305031909.604089 0.395140 9.160058 -2.442682
1305031909.605203 0.395140 9.160058 -2.442682
1305031909.608211 0.143687 8.968475 -2.251099
1305031909.609369 0.143687 8.968475 -2.251099
1305031909.612858 0.191583 8.872683 -2.251099
1305031909.613994 0.191583 8.872683 -2.251099
1305031909.617211 0.107765 8.872683 -2.035568
1305031909.618280 0.107765 8.872683 -2.035568
1305031909.619479 0.107765 8.872683 -2.035568
1305031909.620799 0.107765 8.872683 -2.035568
1305031909.624089 0.143687 8.585309 -1.867933
1305031909.625086 0.143687 8.585309 -1.867933
1305031909.628352 0.191583 8.369778 -1.963725
1305031909.629321 0.191583 8.369778 -1.963725
1305031909.633013 0.287374 8.381752 -1.628455
1305031909.633949 0.287374 8.381752 -1.628455
1305031909.637233 0.395140 8.393726 -1.628455
1305031909.638214 0.395140 8.393726 -1.628455
1305031909.639773 0.395140 8.393726 -1.628455
1305031909.640812 0.395140 8.393726 -1.628455
1305031909.644230 0.682514 8.297935 -1.963725
1305031909.645238 0.682514 8.297935 -1.963725
1305031909.648357 0.682514 8.010560 -2.059516
1305031909.649380 0.682514 8.010560 -2.059516
1305031909.652847 0.778306 7.818977 -2.059516
1305031909.653989 0.778306 7.818977 -2.059516
1305031909.657226 0.862123 7.651342 -2.059516
1305031909.658231 0.862123 7.651342 -2.059516
1305031909.659768 0.862123 7.651342 -2.059516
1305031909.660800 0.862123 7.651342 -2.059516
1305031909.664078 0.526853 7.531603 -2.059516
1305031909.665068 0.526853 7.531603 -2.059516
1305031909.668359 0.395140 7.627394 -2.346891
1305031909.669264 0.395140 7.627394 -2.346891
1305031909.672893 0.287374 7.627394 -2.059516
1305031909.674009 0.287374 7.627394 -2.059516
1305031909.677260 0.287374 7.675290 -2.251099
1305031909.678213 0.287374 7.675290 -2.251099
1305031909.681890 0.191583 8.010560 -2.346891
1305031909.682859 0.191583 8.010560 -2.346891
1305031909.684142 0.191583 8.010560 -2.346891
1305031909.685085 0.191583 8.010560 -2.346891
1305031909.688353 0.287374 8.202143 -2.825848
1305031909.689377 0.287374 8.202143 -2.825848
1305031909.692945 0.287374 8.345830 -2.921639
1305031909.693994 0.287374 8.345830 -2.921639
1305031909.697228 0.107765 8.202143 -3.017431
1305031909.698210 0.107765 8.202143 -3.017431
1305031909.701860 0.095791 8.202143 -3.017431
1305031909.702816 0.095791 8.202143 -3.017431
1305031909.704068 0.095791 8.202143 -3.017431
1305031909.705091 0.095791 8.202143 -3.017431
1305031909.708354 0.059870 8.106352 -2.921639
1305031909.709337 0.059870 8.106352 -2.921639
1305031909.712945 0.095791 8.106352 -3.017431
1305031909.713969 0.095791 8.106352 -3.017431
1305031909.717230 0.011974 8.345830 -2.777952
1305031909.718216 0.011974 8.345830 -2.777952
1305031909.721840 0.107765 8.369778 -2.490578
1305031909.722866 0.107765 8.369778 -2.490578
1305031909.724092 0.107765 8.369778 -2.490578
1305031909.725191 0.107765 8.369778 -2.490578
1305031909.728396 0.107765 8.441622 -2.730056
1305031909.729321 0.107765 8.441622 -2.730056
1305031909.733025 0.107765 8.681100 -2.394786
1305031909.734072 0.107765 8.681100 -2.394786
1305031909.737217 0.107765 8.764918 -2.490578
1305031909.738264 0.107765 8.764918 -2.490578
1305031909.741904 0.287374 8.441622 -2.538474
1305031909.742804 0.287374 8.441622 -2.538474
1305031909.744113 0.287374 8.441622 -2.538474
1305031909.745235 0.287374 8.441622 -2.538474
1305031909.748339 0.107765 8.585309 -2.394786
1305031909.749341 0.107765 8.585309 -2.394786
1305031909.752970 0.143687 8.585309 -2.394786
1305031909.754004 0.143687 8.585309 -2.394786
1305031909.757231 0.287374 8.405700 -2.538474
1305031909.758230 0.287374 8.405700 -2.538474
1305031909.759380 0.287374 8.405700 -2.538474
1305031909.760644 0.287374 8.405700 -2.538474
1305031909.763951 0.191583 8.393726 -2.634265
1305031909.765067 0.191583 8.393726 -2.634265
1305031909.768357 0.143687 8.297935 -2.825848
1305031909.769393 0.143687 8.297935 -2.825848
1305031909.772938 0.119739 8.106352 -2.849796
1305031909.774027 0.119739 8.106352 -2.849796
1305031909.777264 0.191583 8.010560 -3.017431
1305031909.778217 0.191583 8.010560 -3.017431
1305031909.781902 0.095791 7.986612 -3.017431
1305031909.782831 0.095791 7.986612 -3.017431
1305031909.783841 0.095791 7.986612 -3.017431
1305031909.787214 0.107765 7.675290 -3.113222
1305031909.788277 0.107765 7.675290 -3.113222
1305031909.791887 0.191583 7.627394 -3.017431
1305031909.792852 0.191583 7.627394 -3.017431
1305031909.794124 0.191583 7.627394 -3.017431
1305031909.795085 0.191583 7.627394 -3.017431
1305031909.798338 0.191583 7.723186 -2.777952
1305031909.799328 0.191583 7.723186 -2.777952
1305031909.802956 0.191583 7.818977 -2.825848
1305031909.803949 0.191583 7.818977 -2.825848
1305031909.807204 0.107765 8.010560 -2.634265
1305031909.808245 0.107765 8.010560 -2.634265
1305031909.811869 0.287374 8.010560 -2.825848
1305031909.812942 0.287374 8.010560 -2.825848
1305031909.814234 0.287374 8.010560 -2.825848
1305031909.815216 0.287374 8.010560 -2.825848
1305031909.818398 0.287374 8.393726 -2.921639
1305031909.819340 0.287374 8.393726 -2.921639
1305031909.822992 0.287374 8.585309 -3.113222
1305031909.823992 0.287374 8.585309 -3.113222
1305031909.827259 0.287374 8.776892 -3.400597
1305031909.828233 0.287374 8.776892 -3.400597
1305031909.831826 0.443035 8.968475 -3.879554
1305031909.832987 0.443035 8.968475 -3.879554
1305031909.834071 0.443035 8.968475 -3.879554
1305031909.835236 0.443035 8.968475 -3.879554
1305031909.838341 0.287374 8.824788 -4.406407
1305031909.839521 0.287374 8.824788 -4.406407
1305031909.843116 0.083818 8.968475 -4.645885
1305031909.844108 0.083818 8.968475 -4.645885
1305031909.847241 0.059870 8.776892 -4.837468
1305031909.848240 0.059870 8.776892 -4.837468
1305031909.851894 0.011974 8.681100 -5.124843
1305031909.852972 0.011974 8.681100 -5.124843
1305031909.854236 0.011974 8.681100 -5.124843
1305031909.855228 0.011974 8.681100 -5.124843
1305031909.858342 0.011974 8.393726 -5.316426
1305031909.859322 0.011974 8.393726 -5.316426
1305031909.862987 0.083818 8.417674 -5.124843
1305031909.863950 0.083818 8.417674 -5.124843
1305031909.867237 0.011974 8.393726 -5.124843
1305031909.868235 0.011974 8.393726 -5.124843
1305031909.871858 0.107765 8.297935 -5.124843
1305031909.872820 0.107765 8.297935 -5.124843
1305031909.874144 0.107765 8.297935 -5.124843
1305031909.875121 0.107765 8.297935 -5.124843
1305031909.878368 0.095791 8.010560 -4.933260
1305031909.879392 0.095791 8.010560 -4.933260
1305031909.882993 0.107765 8.010560 -4.741677
1305031909.883962 0.107765 8.010560 -4.741677
1305031909.887231 0.107765 8.010560 -4.645885
1305031909.888273 0.107765 8.010560 -4.645885
1305031909.891889 0.466983 7.962665 -4.729703
1305031909.892811 0.466983 7.962665 -4.729703
1305031909.894117 0.466983 7.962665 -4.729703
1305031909.895102 0.466983 7.962665 -4.729703
1305031909.898360 0.287374 7.914769 -4.645885
1305031909.899319 0.287374 7.914769 -4.645885
1305031909.902978 0.478957 7.818977 -4.310615
1305031909.903972 0.478957 7.818977 -4.310615
1305031909.907212 0.526853 8.010560 -3.975345
1305031909.908358 0.526853 8.010560 -3.975345
1305031909.911896 0.502905 8.022534 -4.023241
1305031909.912951 0.502905 8.022534 -4.023241
1305031909.914234 0.502905 8.022534 -4.023241
1305031909.915235 0.502905 8.022534 -4.023241
1305031909.918342 0.490931 8.393726 -3.783762
1305031909.919374 0.490931 8.393726 -3.783762
1305031909.922955 0.502905 8.393726 -3.975345
1305031909.923997 0.502905 8.393726 -3.975345
1305031909.927260 0.490931 8.585309 -3.975345
1305031909.928236 0.490931 8.585309 -3.975345
1305031909.931831 0.502905 8.585309 -4.166928
1305031909.932964 0.502905 8.585309 -4.166928
1305031909.934076 0.502905 8.585309 -4.166928
1305031909.935218 0.502905 8.585309 -4.166928
1305031909.938367 0.478957 8.489518 -4.382459
1305031909.939341 0.478957 8.489518 -4.382459
1305031909.942967 0.682514 8.393726 -4.645885
1305031909.944122 0.682514 8.393726 -4.645885
1305031909.947269 0.490931 8.202143 -4.837468
1305031909.948218 0.490931 8.202143 -4.837468
1305031909.951843 0.574749 8.010560 -5.100895
1305031909.952965 0.574749 8.010560 -5.100895
1305031909.954278 0.574749 8.010560 -5.100895
1305031909.955219 0.574749 8.010560 -5.100895
1305031909.958360 0.526853 7.914769 -5.124843
1305031909.959355 0.526853 7.914769 -5.124843
1305031909.962869 0.478957 8.010560 -5.220634
1305031909.963948 0.478957 8.010560 -5.220634
1305031909.967204 0.574749 7.998586 -5.460113
1305031909.968236 0.574749 7.998586 -5.460113
1305031909.971847 0.478957 8.010560 -5.508009
1305031909.972824 0.478957 8.010560 -5.508009
1305031909.974096 0.478957 8.010560 -5.508009
1305031909.975115 0.478957 8.010560 -5.508009
1305031909.978358 0.478957 8.034508 -5.699591
1305031909.979399 0.478957 8.034508 -5.699591
1305031909.982987 0.478957 8.010560 -5.891174
1305031909.984002 0.478957 8.010560 -5.891174
1305031909.987231 0.478957 8.010560 -5.603800
1305031909.988245 0.478957 8.010560 -5.603800
1305031909.991872 0.478957 8.010560 -5.795383
1305031909.992952 0.478957 8.010560 -5.795383
1305031909.994247 0.478957 8.010560 -5.795383
1305031909.995204 0.478957 8.010560 -5.795383
1305031909.998326 0.443035 8.297935 -5.555904
1305031909.999319 0.443035 8.297935 -5.555904
1305031910.002962 0.478957 8.489518 -5.603800
1305031910.003952 0.478957 8.489518 -5.603800
1305031910.007217 0.490931 8.393726 -5.699591
1305031910.008219 0.490931 8.393726 -5.699591
1305031910.011895 0.478957 8.585309 -5.555904
1305031910.012951 0.478957 8.585309 -5.555904
1305031910.014096 0.478957 8.585309 -5.555904
1305031910.015233 0.478957 8.585309 -5.555904
1305031910.018384 0.095791 8.585309 -5.124843
1305031910.019376 0.095791 8.585309 -5.124843
1305031910.022965 0.095791 8.585309 -5.136817
1305031910.024109 0.095791 8.585309 -5.136817
1305031910.027262 0.095791 8.681100 -5.124843
1305031910.028234 0.095791 8.681100 -5.124843
1305031910.031833 0.107765 8.776892 -5.172738
1305031910.032761 0.107765 8.776892 -5.172738
1305031910.033859 0.107765 8.776892 -5.172738
1305031910.037270 0.107765 8.872683 -5.412217
1305031910.038218 0.107765 8.872683 -5.412217
1305031910.041861 0.107765 9.064266 -5.699591
1305031910.042869 0.107765 9.064266 -5.699591
1305031910.044096 0.107765 9.064266 -5.699591
1305031910.045230 0.107765 9.064266 -5.699591
1305031910.048358 0.395140 8.824788 -6.082757
1305031910.049381 0.395140 8.824788 -6.082757
1305031910.052981 0.443035 8.776892 -6.226444
1305031910.053974 0.443035 8.776892 -6.226444
1305031910.057217 0.478957 8.585309 -6.465923
1305031910.058200 0.478957 8.585309 -6.465923
1305031910.062027 0.478957 8.393726 -6.669480
1305031910.063011 0.478957 8.393726 -6.669480
1305031910.064280 0.478957 8.393726 -6.669480
1305031910.065190 0.478957 8.393726 -6.669480
1305031910.068323 0.682514 8.297935 -7.232255
1305031910.069314 0.682514 8.297935 -7.232255
1305031910.073135 0.682514 8.058456 -7.423838
1305031910.074111 0.682514 8.058456 -7.423838
1305031910.077273 0.682514 8.106352 -7.423838
1305031910.078232 0.682514 8.106352 -7.423838
1305031910.081841 0.478957 7.914769 -7.783056
1305031910.082981 0.478957 7.914769 -7.783056
1305031910.084090 0.478957 7.914769 -7.783056
1305031910.085216 0.478957 7.914769 -7.783056
1305031910.088220 0.287374 7.627394 -7.615421
1305031910.089360 0.287374 7.627394 -7.615421
1305031910.092944 0.143687 7.627394 -7.471733
1305031910.093986 0.143687 7.627394 -7.471733
1305031910.097214 0.119739 7.627394 -7.232255
1305031910.098201 0.119739 7.627394 -7.232255
1305031910.101832 0.143687 7.627394 -7.423838
1305031910.102835 0.143687 7.627394 -7.423838
1305031910.104098 0.143687 7.627394 -7.423838
1305031910.105078 0.143687 7.627394 -7.423838
1305031910.108362 0.191583 7.818977 -6.849089
1305031910.109467 0.191583 7.818977 -6.849089
1305031910.112954 0.107765 8.010560 -6.681454
1305031910.114113 0.107765 8.010560 -6.681454
1305031910.117269 0.119739 8.058456 -6.561715
1305031910.118217 0.119739 8.058456 -6.561715
1305031910.121861 0.095791 8.202143 -6.657506
1305031910.122826 0.095791 8.202143 -6.657506
1305031910.124111 0.095791 8.202143 -6.657506
1305031910.125103 0.095791 8.202143 -6.657506
1305031910.128403 0.287374 8.010560 -6.705402
1305031910.129324 0.287374 8.010560 -6.705402
1305031910.132953 0.287374 8.010560 -6.849089
1305031910.133950 0.287374 8.010560 -6.849089
1305031910.137401 0.395140 7.818977 -7.232255
1305031910.138385 0.395140 7.818977 -7.232255
1305031910.141962 0.443035 7.818977 -7.232255
1305031910.142978 0.443035 7.818977 -7.232255
1305031910.144234 0.443035 7.818977 -7.232255
1305031910.145232 0.443035 7.818977 -7.232255
1305031910.148389 0.478957 7.818977 -7.615421
1305031910.149377 0.478957 7.818977 -7.615421
1305031910.152946 0.478957 7.818977 -7.615421
1305031910.154026 0.478957 7.818977 -7.615421
1305031910.157234 0.502905 7.818977 -7.615421
1305031910.158235 0.502905 7.818977 -7.615421
1305031910.161901 0.682514 7.914769 -7.447785
1305031910.162845 0.682514 7.914769 -7.447785
1305031910.164100 0.682514 7.914769 -7.447785
1305031910.165194 0.682514 7.914769 -7.447785
1305031910.168359 0.574749 7.818977 -7.711212
1305031910.169429 0.574749 7.818977 -7.711212
1305031910.172976 0.502905 7.962665 -7.423838
1305031910.173950 0.502905 7.962665 -7.423838
1305031910.177245 0.526853 8.010560 -7.088568
1305031910.178360 0.526853 8.010560 -7.088568
1305031910.181835 0.478957 8.106352 -6.849089
1305031910.182993 0.478957 8.106352 -6.849089
1305031910.184231 0.478957 8.106352 -6.849089
1305031910.185235 0.478957 8.106352 -6.849089
1305031910.188381 0.287374 8.202143 -5.986966
1305031910.189491 0.287374 8.202143 -5.986966
1305031910.193117 -0.083818 8.202143 -5.508009
1305031910.194122 -0.083818 8.202143 -5.508009
1305031910.197230 -0.083818 8.393726 -5.124843
1305031910.198322 -0.083818 8.393726 -5.124843
1305031910.201827 0.095791 8.202143 -4.933260
1305031910.202814 0.095791 8.202143 -4.933260
1305031910.204125 0.095791 8.202143 -4.933260
1305031910.205224 0.095791 8.202143 -4.933260
1305031910.208362 0.107765 8.585309 -4.358511
1305031910.209484 0.107765 8.585309 -4.358511
1305031910.213170 0.191583 8.776892 -4.358511
1305031910.214149 0.191583 8.776892 -4.358511
1305031910.217242 0.443035 8.800840 -4.406407
1305031910.218239 0.443035 8.800840 -4.406407
1305031910.221862 0.478957 9.112162 -4.741677
1305031910.222853 0.478957 9.112162 -4.741677
1305031910.224146 0.478957 9.112162 -4.741677
1305031910.225225 0.478957 9.112162 -4.741677
1305031910.228356 0.478957 8.968475 -5.172738
1305031910.229325 0.478957 8.968475 -5.172738
1305031910.233079 0.478957 8.872683 -5.843279
1305031910.234072 0.478957 8.872683 -5.843279
1305031910.237359 0.443035 8.776892 -6.250392
1305031910.238359 0.443035 8.776892 -6.250392
1305031910.241997 0.574749 8.393726 -6.753297
1305031910.243005 0.574749 8.393726 -6.753297
1305031910.244272 0.574749 8.393726 -6.753297
1305031910.245359 0.574749 8.393726 -6.753297
1305031910.248363 0.682514 8.010560 -7.232255
1305031910.249507 0.682514 8.010560 -7.232255
1305031910.252977 0.682514 7.914769 -7.471733
1305031910.254112 0.682514 7.914769 -7.471733
1305031910.257237 0.478957 7.818977 -7.328046
1305031910.258228 0.478957 7.818977 -7.328046
1305031910.261904 0.395140 7.962665 -7.375942
1305031910.262845 0.395140 7.962665 -7.375942
1305031910.264153 0.395140 7.962665 -7.375942
1305031910.265215 0.395140 7.962665 -7.375942
1305031910.268336 0.119739 8.010560 -7.040672
1305031910.269320 0.119739 8.010560 -7.040672
1305031910.272975 0.191583 7.914769 -6.753297
1305031910.273986 0.191583 7.914769 -6.753297
1305031910.277270 0.287374 7.914769 -6.465923
1305031910.278219 0.287374 7.914769 -6.465923
1305031910.281876 0.287374 7.914769 -6.274340
1305031910.282873 0.287374 7.914769 -6.274340
1305031910.284112 0.287374 7.914769 -6.274340
1305031910.285241 0.287374 7.914769 -6.274340
1305031910.288362 0.478957 8.010560 -6.465923
1305031910.289391 0.478957 8.010560 -6.465923
1305031910.292974 0.682514 8.010560 -6.370132
1305031910.294114 0.682514 8.010560 -6.370132
1305031910.297203 0.862123 7.818977 -6.561715
1305031910.298326 0.862123 7.818977 -6.561715
1305031910.301831 0.862123 7.723186 -6.465923
1305031910.302829 0.862123 7.723186 -6.465923
1305031910.304126 0.862123 7.723186 -6.465923
1305031910.305228 0.862123 7.723186 -6.465923
1305031910.308394 0.886071 7.435812 -6.465923
1305031910.309341 0.886071 7.435812 -6.465923
1305031910.312943 0.957915 7.244229 -6.274340
1305031910.314006 0.957915 7.244229 -6.274340
1305031910.317215 0.910019 6.956854 -6.465923
1305031910.318343 0.910019 6.956854 -6.465923
1305031910.322028 0.874097 6.908959 -6.465923
1305031910.322977 0.874097 6.908959 -6.465923
1305031910.324120 0.874097 6.908959 -6.465923
1305031910.325233 0.874097 6.908959 -6.465923
1305031910.328401 0.862123 6.861063 -6.657506
1305031910.329325 0.862123 6.861063 -6.657506
1305031910.332945 0.910019 6.669480 -6.705402
1305031910.333962 0.910019 6.669480 -6.705402
1305031910.337241 1.053706 6.669480 -6.849089
1305031910.338371 1.053706 6.669480 -6.849089
1305031910.342026 1.161471 6.477897 -7.136463
1305031910.343010 1.161471 6.477897 -7.136463
1305031910.344274 1.161471 6.477897 -7.136463
1305031910.345227 1.161471 6.477897 -7.136463
1305031910.348357 1.053706 6.477897 -7.136463
1305031910.349361 1.053706 6.477897 -7.136463
1305031910.352977 1.245289 6.382106 -7.232255
1305031910.353973 1.245289 6.382106 -7.232255
1305031910.357216 1.053706 6.477897 -7.040672
1305031910.358360 1.053706 6.477897 -7.040672
1305031910.361885 1.053706 6.286314 -7.136463
1305031910.363009 1.053706 6.286314 -7.136463
1305031910.364093 1.053706 6.286314 -7.136463
1305031910.365200 1.053706 6.286314 -7.136463
1305031910.368341 1.053706 6.382106 -7.519629
1305031910.369334 1.053706 6.382106 -7.519629
1305031910.372943 1.245289 6.286314 -7.615421
1305031910.373972 1.245289 6.286314 -7.615421
1305031910.377250 1.257263 6.286314 -7.807003
1305031910.378363 1.257263 6.286314 -7.807003
1305031910.382033 1.257263 6.094731 -7.998586
1305031910.382994 1.257263 6.094731 -7.998586
1305031910.384233 1.257263 6.094731 -7.998586
1305031910.385242 1.257263 6.094731 -7.998586
1305031910.388216 1.053706 6.046835 -7.807003
1305031910.389383 1.053706 6.046835 -7.807003
1305031910.392954 1.053706 5.903148 -7.807003
1305031910.393990 1.053706 5.903148 -7.807003
1305031910.397270 0.874097 5.903148 -7.807003
1305031910.398211 0.874097 5.903148 -7.807003
1305031910.399709 0.874097 5.903148 -7.807003
1305031910.402951 0.862123 5.807357 -7.615421
1305031910.403964 0.862123 5.807357 -7.615421
1305031910.407244 0.850149 6.094731 -7.423838
1305031910.408225 0.850149 6.094731 -7.423838
1305031910.411846 0.910019 6.118679 -7.615421
1305031910.412957 0.910019 6.118679 -7.615421
1305031910.414079 0.910019 6.118679 -7.615421
1305031910.415223 0.910019 6.118679 -7.615421
1305031910.418353 1.053706 6.430001 -7.615421
1305031910.419344 1.053706 6.430001 -7.615421
1305031910.422998 1.053706 6.477897 -7.615421
1305031910.423970 1.053706 6.477897 -7.615421
1305031910.427268 1.053706 6.382106 -7.807003
1305031910.428265 1.053706 6.382106 -7.807003
1305031910.431835 1.161471 6.382106 -7.998586
1305031910.433044 1.161471 6.382106 -7.998586
1305031910.434080 1.161471 6.382106 -7.998586
1305031910.435221 1.161471 6.382106 -7.998586
1305031910.438373 1.053706 6.382106 -8.381752
1305031910.439384 1.053706 6.382106 -8.381752
1305031910.443036 0.957915 6.190523 -8.573335
1305031910.444154 0.957915 6.190523 -8.573335
1305031910.447205 0.826201 6.094731 -8.621231
1305031910.448202 0.826201 6.094731 -8.621231
1305031910.451899 0.682514 5.903148 -8.944527
1305031910.452850 0.682514 5.903148 -8.944527
1305031910.454279 0.682514 5.903148 -8.944527
1305031910.455224 0.682514 5.903148 -8.944527
1305031910.458345 0.682514 5.903148 -9.148084
1305031910.459360 0.682514 5.903148 -9.148084
1305031910.462976 0.778306 5.807357 -9.363615
1305031910.463969 0.778306 5.807357 -9.363615
1305031910.467391 0.682514 6.046835 -9.627041
1305031910.468335 0.682514 6.046835 -9.627041
1305031910.469324 0.682514 6.046835 -9.627041
1305031910.472937 0.778306 5.998940 -9.674937
1305031910.473973 0.778306 5.998940 -9.674937
1305031910.477222 0.850149 5.711565 -9.627041
1305031910.478358 0.850149 5.711565 -9.627041
1305031910.481863 0.826201 5.711565 -9.674937
1305031910.482818 0.826201 5.711565 -9.674937
1305031910.484124 0.826201 5.711565 -9.674937
1305031910.485116 0.826201 5.711565 -9.674937
1305031910.488234 0.778306 5.376295 -9.315719
1305031910.489325 0.778306 5.376295 -9.315719
1305031910.492820 0.682514 5.136817 -9.148084
1305031910.493868 0.682514 5.136817 -9.148084
1305031910.497122 0.682514 4.993129 -8.764918
1305031910.498075 0.682514 4.993129 -8.764918
1305031910.499320 0.682514 4.993129 -8.764918
1305031910.500316 0.682514 4.993129 -8.764918
1305031910.503975 0.682514 5.328400 -8.190169
1305031910.505104 0.682514 5.328400 -8.190169
1305031910.508348 0.778306 5.519982 -7.807003
1305031910.509343 0.778306 5.519982 -7.807003
1305031910.512954 0.862123 5.424191 -7.232255
1305031910.513963 0.862123 5.424191 -7.232255
1305031910.517251 0.682514 5.519982 -6.849089
1305031910.518365 0.682514 5.519982 -6.849089
1305031910.521984 0.826201 5.519982 -6.370132
1305031910.522967 0.826201 5.519982 -6.370132
1305031910.524249 0.826201 5.519982 -6.370132
1305031910.525217 0.826201 5.519982 -6.370132
1305031910.528389 0.862123 5.711565 -6.082757
1305031910.529330 0.862123 5.711565 -6.082757
1305031910.533054 0.862123 5.711565 -5.891174
1305031910.534060 0.862123 5.711565 -5.891174
1305031910.537268 0.886071 5.903148 -6.274340
1305031910.538264 0.886071 5.903148 -6.274340
1305031910.541845 1.053706 6.094731 -6.274340
1305031910.542821 1.053706 6.094731 -6.274340
1305031910.544250 1.053706 6.094731 -6.274340
1305031910.545226 1.053706 6.094731 -6.274340
1305031910.548220 1.053706 6.082757 -6.657506
1305031910.549345 1.053706 6.082757 -6.657506
1305031910.552818 1.161471 6.094731 -6.657506
1305031910.554003 1.161471 6.094731 -6.657506
1305031910.557221 1.257263 5.903148 -6.849089
1305031910.558238 1.257263 5.903148 -6.849089
1305031910.559484 1.257263 5.903148 -6.849089
1305031910.560827 1.257263 5.903148 -6.849089
1305031910.564115 1.161471 5.903148 -7.423838
1305031910.565093 1.161471 5.903148 -7.423838
1305031910.568196 1.257263 6.094731 -7.615421
1305031910.569314 1.257263 6.094731 -7.615421
1305031910.572818 1.257263 6.094731 -7.615421
1305031910.573974 1.257263 6.094731 -7.615421
1305031910.577095 1.257263 6.094731 -7.807003
1305031910.578098 1.257263 6.094731 -7.807003
1305031910.579343 1.257263 6.094731 -7.807003
1305031910.580346 1.257263 6.094731 -7.807003
1305031910.583989 1.053706 6.142627 -7.998586
1305031910.585093 1.053706 6.142627 -7.998586
1305031910.588360 0.874097 6.286314 -7.807003
1305031910.589344 0.874097 6.286314 -7.807003
1305031910.592955 0.862123 6.190523 -7.615421
1305031910.593989 0.862123 6.190523 -7.615421
1305031910.597212 0.526853 6.286314 -7.519629
1305031910.598194 0.526853 6.286314 -7.519629
1305031910.601818 0.502905 6.286314 -7.471733
1305031910.602843 0.502905 6.286314 -7.471733
1305031910.604094 0.502905 6.286314 -7.471733
1305031910.605111 0.502905 6.286314 -7.471733
1305031910.608341 0.526853 6.573688 -7.232255
1305031910.609345 0.526853 6.573688 -7.232255
1305031910.612967 0.682514 6.669480 -7.423838
1305031910.613972 0.682514 6.669480 -7.423838
1305031910.617220 0.682514 6.573688 -7.519629
1305031910.618217 0.682514 6.573688 -7.519629
1305031910.621857 0.826201 6.573688 -7.423838
1305031910.622835 0.826201 6.573688 -7.423838
1305031910.624099 0.826201 6.573688 -7.423838
1305031910.625232 0.826201 6.573688 -7.423838
1305031910.628347 0.862123 6.861063 -7.423838
1305031910.629375 0.862123 6.861063 -7.423838
1305031910.632939 0.862123 6.813167 -7.423838
1305031910.633958 0.862123 6.813167 -7.423838
1305031910.637222 0.910019 6.813167 -7.423838
1305031910.638220 0.910019 6.813167 -7.423838
1305031910.641823 0.957915 6.669480 -7.519629
1305031910.642807 0.957915 6.669480 -7.519629
1305031910.644064 0.957915 6.669480 -7.519629
1305031910.645194 0.957915 6.669480 -7.519629
1305031910.648364 0.862123 6.669480 -7.232255
1305031910.649327 0.862123 6.669480 -7.232255
1305031910.652951 0.682514 6.525793 -7.136463
1305031910.653965 0.682514 6.525793 -7.136463
1305031910.657223 0.778306 6.525793 -7.040672
1305031910.658199 0.778306 6.525793 -7.040672
1305031910.661887 0.862123 6.669480 -6.753297
1305031910.662988 0.862123 6.669480 -6.753297
1305031910.664081 0.862123 6.669480 -6.753297
1305031910.665628 0.862123 6.669480 -6.753297
1305031910.668153 0.778306 6.813167 -6.849089
1305031910.669273 0.778306 6.813167 -6.849089
1305031910.672772 0.682514 6.765271 -6.657506
1305031910.673776 0.682514 6.765271 -6.657506
1305031910.677335 0.826201 6.813167 -6.849089
1305031910.678207 0.826201 6.813167 -6.849089
1305031910.679212 0.826201 6.813167 -6.849089
1305031910.682835 0.574749 6.861063 -6.657506
1305031910.683850 0.574749 6.861063 -6.657506
1305031910.687095 0.862123 6.849089 -6.944880
1305031910.688080 0.862123 6.849089 -6.944880
1305031910.689465 0.862123 6.849089 -6.944880
1305031910.690810 0.862123 6.849089 -6.944880
1305031910.693864 0.850149 6.861063 -7.136463
1305031910.697101 0.862123 6.956854 -7.232255
1305031910.698083 0.862123 6.956854 -7.232255
1305031910.699065 0.862123 6.956854 -7.232255
1305031910.702204 0.682514 7.052646 -7.411864
1305031910.703181 0.682514 7.052646 -7.411864
1305031910.706858 0.682514 7.052646 -7.783056
1305031910.708000 0.682514 7.052646 -7.783056
1305031910.709241 0.682514 7.052646 -7.783056
1305031910.710223 0.682514 7.052646 -7.783056
1305031910.713361 0.862123 6.873037 -8.142274
1305031910.714348 0.862123 6.873037 -8.142274
1305031910.718116 0.478957 6.956854 -7.818977
1305031910.719109 0.478957 6.956854 -7.818977
1305031910.722223 0.502905 6.837115 -7.807003
1305031910.723220 0.502905 6.837115 -7.807003
1305031910.726821 0.478957 6.669480 -7.807003
1305031910.727850 0.478957 6.669480 -7.807003
1305031910.729110 0.478957 6.669480 -7.807003
1305031910.730120 0.478957 6.669480 -7.807003
1305031910.733340 0.287374 6.861063 -7.136463
1305031910.734333 0.287374 6.861063 -7.136463
1305031910.737964 0.095791 6.956854 -7.040672
1305031910.739067 0.095791 6.956854 -7.040672
1305031910.742743 0.191583 7.052646 -6.944880
1305031910.743832 0.191583 7.052646 -6.944880
1305031910.744901 0.191583 7.052646 -6.944880
1305031910.749496 0.095791 7.340020 -6.849089
1305031910.751856 0.191583 7.292124 -7.016724
1305031910.752807 0.191583 7.292124 -7.016724
1305031910.753849 0.191583 7.292124 -7.016724
1305031910.757322 0.107765 7.579499 -6.657506
1305031910.758324 0.107765 7.579499 -6.657506
1305031910.761986 0.143687 7.531603 -6.657506
1305031910.762989 0.143687 7.531603 -6.657506
1305031910.764251 0.143687 7.531603 -6.657506
1305031910.765357 0.143687 7.531603 -6.657506
1305031910.768208 0.143687 7.603447 -6.465923
1305031910.769317 0.143687 7.603447 -6.465923
1305031910.772961 0.107765 7.627394 -6.274340
1305031910.773984 0.107765 7.627394 -6.274340
1305031910.777228 0.287374 7.615421 -6.370132
1305031910.779631 0.287374 7.615421 -6.370132
1305031910.781838 0.478957 7.435812 -6.561715
1305031910.782783 0.478957 7.435812 -6.561715
1305031910.784100 0.478957 7.435812 -6.561715
1305031910.785200 0.478957 7.435812 -6.561715
1305031910.788240 0.778306 7.292124 -6.657506
1305031910.789325 0.778306 7.292124 -6.657506
1305031910.792948 0.862123 7.148437 -6.753297
1305031910.793974 0.862123 7.148437 -6.753297
1305031910.797775 0.957915 6.861063 -6.753297
1305031910.798751 0.957915 6.861063 -6.753297
1305031910.799823 0.957915 6.861063 -6.753297
1305031910.803077 1.053706 6.573688 -6.944880
1305031910.804209 1.053706 6.573688 -6.944880
1305031910.807842 0.957915 6.430001 -6.753297
1305031910.809184 0.957915 6.430001 -6.753297
1305031910.812089 0.957915 6.286314 -6.657506
1305031910.813110 0.957915 6.286314 -6.657506
1305031910.814334 0.957915 6.286314 -6.657506
1305031910.815398 0.957915 6.286314 -6.657506
1305031910.818987 0.957915 6.453949 -6.705402
1305031910.819974 0.957915 6.453949 -6.705402
1305031910.823220 0.910019 6.382106 -6.561715
1305031910.824363 0.910019 6.382106 -6.561715
1305031910.828000 1.053706 6.477897 -6.681454
1305031910.828955 1.053706 6.477897 -6.681454
1305031910.832213 0.862123 6.861063 -6.657506
1305031910.833212 0.862123 6.861063 -6.657506
1305031910.837064 0.862123 6.837115 -6.645532
1305031910.837950 0.862123 6.837115 -6.645532
1305031910.839074 0.862123 6.837115 -6.645532
1305031910.840200 0.862123 6.837115 -6.645532
1305031910.843351 0.682514 6.885011 -6.657506
1305031910.844358 0.682514 6.885011 -6.657506
1305031910.847841 0.478957 7.052646 -6.657506
1305031910.848994 0.478957 7.052646 -6.657506
1305031910.852265 0.478957 7.220281 -6.657506
1305031910.853225 0.478957 7.220281 -6.657506
1305031910.856864 0.478957 7.244229 -6.657506
1305031910.857852 0.478957 7.244229 -6.657506
1305031910.859122 0.478957 7.244229 -6.657506
1305031910.860101 0.478957 7.244229 -6.657506
1305031910.863373 0.778306 7.244229 -6.370132
1305031910.864369 0.778306 7.244229 -6.370132
1305031910.867963 0.682514 7.340020 -6.082757
1305031910.869218 0.682514 7.340020 -6.082757
1305031910.872219 0.862123 7.340020 -6.178549
1305031910.873368 0.862123 7.340020 -6.178549
1305031910.876886 1.053706 7.435812 -6.274340
1305031910.878044 1.053706 7.435812 -6.274340
1305031910.879089 1.053706 7.435812 -6.274340
1305031910.880083 1.053706 7.435812 -6.274340
1305031910.883225 0.957915 7.340020 -6.226444
1305031910.884364 0.957915 7.340020 -6.226444
1305031910.887852 1.053706 7.244229 -6.082757
1305031910.888976 1.053706 7.244229 -6.082757
1305031910.892242 1.161471 7.244229 -6.226444
1305031910.893238 1.161471 7.244229 -6.226444
1305031910.896901 1.257263 7.268176 -6.322236
1305031910.897839 1.257263 7.268176 -6.322236
1305031910.899069 1.257263 7.268176 -6.322236
1305031910.900075 1.257263 7.268176 -6.322236
1305031910.903329 1.592533 7.220281 -6.657506
1305031910.904339 1.592533 7.220281 -6.657506
1305031910.907988 1.640429 7.292124 -6.944880
1305031910.909113 1.640429 7.292124 -6.944880
1305031910.912239 1.640429 7.244229 -7.040672
1305031910.913214 1.640429 7.244229 -7.040672
1305031910.917084 1.640429 7.052646 -7.040672
1305031910.918079 1.640429 7.052646 -7.040672
1305031910.919244 1.640429 7.052646 -7.040672
1305031910.922236 1.592533 6.956854 -7.423838
1305031910.923321 1.592533 6.956854 -7.423838
1305031910.926890 1.269237 6.669480 -7.423838
1305031910.928000 1.269237 6.669480 -7.423838
1305031910.929196 1.269237 6.669480 -7.423838
1305031910.930209 1.269237 6.669480 -7.423838
1305031910.933336 1.053706 6.477897 -7.435812
1305031910.934318 1.053706 6.477897 -7.435812
1305031910.937963 0.862123 6.286314 -7.328046
1305031910.938943 0.862123 6.286314 -7.328046
1305031910.942261 0.850149 6.190523 -7.040672
1305031910.943721 0.850149 6.190523 -7.040672
1305031910.945236 0.850149 6.190523 -7.040672
1305031910.948090 0.850149 6.477897 -6.849089
1305031910.949205 0.850149 6.477897 -6.849089
1305031910.952226 0.862123 6.477897 -6.944880
1305031910.953336 0.862123 6.477897 -6.944880
1305031910.954351 0.862123 6.477897 -6.944880
1305031910.957980 1.053706 6.669480 -6.753297
1305031910.959112 1.053706 6.669480 -6.753297
1305031910.962222 1.053706 6.669480 -6.849089
1305031910.963363 1.053706 6.669480 -6.849089
1305031910.966840 1.053706 6.861063 -6.992776
1305031910.967890 1.053706 6.861063 -6.992776
1305031910.969206 1.053706 6.861063 -6.992776
1305031910.972202 1.257263 6.765271 -7.052646
1305031910.973328 1.257263 6.765271 -7.052646
1305031910.974346 1.257263 6.765271 -7.052646
1305031910.977983 1.209367 6.861063 -7.040672
1305031910.979089 1.209367 6.861063 -7.040672
1305031910.980145 1.209367 6.861063 -7.040672
1305031910.983346 1.209367 6.837115 -7.471733
1305031910.986931 1.257263 6.669480 -7.807003
1305031910.987983 1.257263 6.669480 -7.807003
1305031910.989075 1.257263 6.669480 -7.807003
1305031910.992225 1.341080 6.765271 -7.998586
1305031910.993222 1.341080 6.765271 -7.998586
1305031910.996940 1.257263 6.573688 -8.573335
1305031910.997969 1.257263 6.573688 -8.573335
1305031910.999196 1.257263 6.573688 -8.573335
1305031911.000201 1.257263 6.573688 -8.573335
1305031911.003204 1.161471 6.849089 -8.621231
1305031911.005617 1.161471 6.849089 -8.621231
1305031911.007971 1.161471 6.861063 -8.764918
1305031911.009067 1.161471 6.861063 -8.764918
1305031911.012588 0.957915 6.956854 -8.621231
1305031911.013871 0.957915 6.956854 -8.621231
1305031911.016992 0.826201 7.052646 -8.573335
1305031911.017950 0.826201 7.052646 -8.573335
1305031911.019367 0.826201 7.052646 -8.573335
1305031911.022226 0.574749 7.052646 -8.381752
1305031911.023220 0.574749 7.052646 -8.381752
1305031911.026844 0.502905 6.908959 -8.238065
1305031911.027995 0.502905 6.908959 -8.238065
1305031911.029086 0.502905 6.908959 -8.238065
1305031911.030212 0.502905 6.908959 -8.238065
1305031911.033338 0.395140 6.908959 -7.807003
1305031911.034318 0.395140 6.908959 -7.807003
1305031911.037971 0.287374 7.052646 -7.615421
1305031911.039082 0.287374 7.052646 -7.615421
1305031911.042261 0.443035 6.908959 -7.423838
1305031911.043206 0.443035 6.908959 -7.423838
1305031911.046919 0.574749 7.052646 -7.064620
1305031911.048230 0.574749 7.052646 -7.064620
1305031911.049155 0.574749 7.052646 -7.064620
1305031911.050167 0.574749 7.052646 -7.064620
1305031911.053353 0.682514 7.052646 -6.753297
1305031911.054338 0.682514 7.052646 -6.753297
1305031911.057958 1.053706 6.956854 -6.849089
1305031911.058957 1.053706 6.956854 -6.849089
1305031911.062245 0.957915 6.861063 -6.849089
1305031911.063237 0.957915 6.861063 -6.849089
1305031911.066829 0.862123 6.861063 -6.657506
1305031911.067835 0.862123 6.861063 -6.657506
1305031911.069082 0.862123 6.861063 -6.657506
1305031911.070087 0.862123 6.861063 -6.657506
1305031911.073340 0.862123 6.861063 -6.657506
1305031911.074322 0.862123 6.861063 -6.657506
1305031911.077858 0.862123 6.861063 -6.849089
1305031911.078974 0.862123 6.861063 -6.849089
1305031911.082108 0.778306 6.956854 -6.849089
1305031911.083397 0.778306 6.956854 -6.849089
1305031911.084375 0.778306 6.956854 -6.849089
1305031911.085835 0.778306 6.956854 -6.849089
1305031911.089116 0.490931 7.196333 -6.657506
1305031911.090100 0.490931 7.196333 -6.657506
1305031911.093347 0.443035 7.435812 -6.561715
1305031911.094350 0.443035 7.435812 -6.561715
1305031911.097955 0.287374 7.818977 -6.465923
1305031911.098936 0.287374 7.818977 -6.465923
1305031911.102196 0.443035 8.010560 -6.465923
1305031911.103186 0.443035 8.010560 -6.465923
1305031911.106865 0.287374 8.010560 -6.705402
1305031911.107955 0.287374 8.010560 -6.705402
1305031911.109226 0.287374 8.010560 -6.705402
1305031911.110201 0.287374 8.010560 -6.705402
1305031911.113348 0.287374 8.106352 -7.016724
1305031911.114334 0.287374 8.106352 -7.016724
1305031911.117973 0.287374 8.010560 -6.705402
1305031911.118973 0.287374 8.010560 -6.705402
1305031911.122226 0.107765 7.962665 -6.992776
1305031911.123231 0.107765 7.962665 -6.992776
1305031911.126948 0.287374 7.818977 -6.609610
1305031911.127950 0.287374 7.818977 -6.609610
1305031911.129214 0.287374 7.818977 -6.609610
1305031911.130208 0.287374 7.818977 -6.609610
1305031911.133333 0.395140 7.627394 -6.561715
1305031911.134320 0.395140 7.627394 -6.561715
1305031911.137952 0.478957 7.531603 -6.274340
1305031911.138936 0.478957 7.531603 -6.274340
1305031911.142218 0.478957 7.268176 -5.986966
1305031911.143218 0.478957 7.268176 -5.986966
1305031911.146838 0.478957 7.244229 -5.603800
1305031911.147976 0.478957 7.244229 -5.603800
1305031911.149202 0.478957 7.244229 -5.603800
1305031911.150203 0.478957 7.244229 -5.603800
1305031911.153359 0.574749 7.244229 -5.603800
1305031911.154354 0.574749 7.244229 -5.603800
1305031911.157952 0.874097 7.340020 -5.699591
1305031911.158972 0.874097 7.340020 -5.699591
1305031911.162199 0.862123 7.531603 -5.867226
1305031911.163200 0.862123 7.531603 -5.867226
1305031911.166823 0.862123 7.579499 -5.891174
1305031911.167814 0.862123 7.579499 -5.891174
1305031911.169189 0.862123 7.579499 -5.891174
1305031911.170188 0.862123 7.579499 -5.891174
1305031911.173944 1.161471 7.268176 -6.465923
1305031911.176972 1.053706 7.244229 -6.465923
1305031911.177967 1.053706 7.244229 -6.465923
1305031911.179206 1.053706 7.244229 -6.465923
1305031911.180220 1.053706 7.244229 -6.465923
1305031911.183365 1.053706 7.148437 -6.849089
1305031911.184334 1.053706 7.148437 -6.849089
1305031911.187997 1.053706 6.956854 -6.944880
1305031911.189106 1.053706 6.956854 -6.944880
1305031911.192239 0.862123 6.956854 -6.561715
1305031911.193371 0.862123 6.956854 -6.561715
1305031911.196878 0.682514 7.052646 -6.609610
1305031911.197962 0.682514 7.052646 -6.609610
1305031911.199083 0.682514 7.052646 -6.609610
1305031911.200248 0.682514 7.052646 -6.609610
1305031911.203341 0.682514 7.148437 -6.274340
1305031911.204337 0.682514 7.148437 -6.274340
1305031911.209399 0.574749 7.244229 -5.986966
1305031911.211478 0.395140 7.244229 -5.891174
1305031911.212476 0.395140 7.244229 -5.891174
1305031911.213979 0.395140 7.244229 -5.891174
1305031911.215086 0.395140 7.244229 -5.891174
1305031911.218354 0.526853 7.292124 -5.891174
1305031911.219333 0.526853 7.292124 -5.891174
1305031911.222984 0.478957 7.531603 -5.555904
1305031911.224125 0.478957 7.531603 -5.555904
1305031911.227250 0.478957 7.627394 -5.316426
1305031911.228246 0.478957 7.627394 -5.316426
1305031911.231841 0.478957 7.627394 -5.172738
1305031911.232831 0.478957 7.627394 -5.172738
1305031911.234066 0.478957 7.627394 -5.172738
1305031911.235085 0.478957 7.627394 -5.172738
1305031911.238342 0.682514 7.627394 -5.412217
1305031911.239326 0.682514 7.627394 -5.412217
1305031911.242974 0.826201 7.603447 -5.531956
1305031911.243972 0.826201 7.603447 -5.531956
1305031911.247250 0.682514 7.627394 -5.508009
1305031911.248208 0.682514 7.627394 -5.508009
1305031911.251883 0.862123 7.818977 -5.603800
1305031911.252828 0.862123 7.818977 -5.603800
1305031911.253850 0.862123 7.818977 -5.603800
1305031911.257368 0.862123 7.675290 -5.891174
1305031911.258209 0.862123 7.675290 -5.891174
1305031911.261853 0.910019 7.531603 -6.274340
1305031911.262981 0.910019 7.531603 -6.274340
1305031911.264244 0.910019 7.531603 -6.274340
1305031911.265193 0.910019 7.531603 -6.274340
1305031911.268350 0.957915 7.435812 -6.657506
1305031911.269331 0.957915 7.435812 -6.657506
1305031911.273006 0.862123 7.435812 -6.669480
1305031911.274119 0.862123 7.435812 -6.669480
1305031911.277231 0.910019 7.340020 -6.849089
1305031911.278427 0.910019 7.340020 -6.849089
1305031911.281874 0.778306 7.292124 -6.657506
1305031911.282826 0.778306 7.292124 -6.657506
1305031911.284090 0.778306 7.292124 -6.657506
1305031911.285228 0.778306 7.292124 -6.657506
1305031911.288372 0.574749 7.244229 -6.465923
1305031911.289351 0.574749 7.244229 -6.465923
1305031911.292966 0.478957 7.244229 -6.274340
1305031911.293977 0.478957 7.244229 -6.274340
1305031911.297228 0.682514 7.435812 -6.178549
1305031911.298196 0.682514 7.435812 -6.178549
1305031911.301821 0.682514 7.435812 -5.891174
1305031911.302936 0.682514 7.435812 -5.891174
1305031911.304067 0.682514 7.435812 -5.891174
1305031911.305203 0.682514 7.435812 -5.891174
1305031911.308357 0.682514 7.531603 -5.508009
1305031911.309346 0.682514 7.531603 -5.508009
1305031911.313088 0.862123 7.268176 -5.508009
1305031911.314104 0.862123 7.268176 -5.508009
1305031911.315088 0.862123 7.268176 -5.508009
1305031911.318378 1.053706 7.268176 -5.460113
1305031911.319364 1.053706 7.268176 -5.460113
1305031911.323033 0.910019 7.268176 -5.555904
1305031911.323981 0.910019 7.268176 -5.555904
1305031911.327281 1.161471 7.244229 -5.699591
1305031911.328272 1.161471 7.244229 -5.699591
1305031911.331742 1.053706 7.244229 -5.699591
1305031911.332965 1.053706 7.244229 -5.699591
1305031911.334115 1.053706 7.244229 -5.699591
1305031911.335073 1.053706 7.244229 -5.699591
1305031911.338335 1.053706 7.244229 -5.891174
1305031911.339322 1.053706 7.244229 -5.891174
1305031911.342978 1.053706 7.244229 -5.891174
1305031911.343979 1.053706 7.244229 -5.891174
1305031911.347224 0.874097 7.579499 -6.082757
1305031911.348219 0.874097 7.579499 -6.082757
1305031911.351869 0.874097 7.435812 -6.178549
1305031911.353053 0.874097 7.435812 -6.178549
1305031911.354105 0.874097 7.435812 -6.178549
1305031911.355101 0.874097 7.435812 -6.178549
1305031911.358329 1.053706 7.435812 -6.274340
1305031911.359349 1.053706 7.435812 -6.274340
1305031911.362990 0.862123 7.627394 -6.274340
1305031911.364013 0.862123 7.627394 -6.274340
1305031911.367209 0.682514 7.627394 -6.274340
1305031911.368202 0.682514 7.627394 -6.274340
1305031911.371843 0.682514 7.627394 -6.274340
1305031911.372932 0.682514 7.627394 -6.274340
1305031911.374077 0.682514 7.627394 -6.274340
1305031911.375066 0.682514 7.627394 -6.274340
1305031911.378372 0.526853 7.818977 -6.274340
1305031911.379335 0.526853 7.818977 -6.274340
1305031911.383065 0.478957 8.010560 -6.274340
1305031911.384092 0.478957 8.010560 -6.274340
1305031911.385087 0.478957 8.010560 -6.274340
1305031911.388213 0.478957 8.010560 -6.178549
1305031911.389327 0.478957 8.010560 -6.178549
1305031911.392848 0.478957 7.914769 -6.082757
1305031911.394001 0.478957 7.914769 -6.082757
1305031911.397090 0.478957 7.914769 -5.891174
1305031911.398213 0.478957 7.914769 -5.891174
1305031911.399323 0.478957 7.914769 -5.891174
1305031911.400483 0.478957 7.914769 -5.891174
1305031911.404051 0.478957 7.914769 -5.699591
1305031911.405077 0.478957 7.914769 -5.699591
1305031911.408373 0.682514 7.818977 -5.891174
1305031911.409416 0.682514 7.818977 -5.891174
1305031911.412981 0.862123 7.818977 -5.891174
1305031911.413982 0.862123 7.818977 -5.891174
1305031911.417090 0.682514 7.723186 -5.843279
1305031911.418079 0.682514 7.723186 -5.843279
1305031911.419378 0.682514 7.723186 -5.843279
1305031911.420351 0.682514 7.723186 -5.843279
1305031911.423977 0.862123 7.627394 -6.226444
1305031911.425100 0.862123 7.627394 -6.226444
1305031911.428381 0.957915 7.435812 -6.274340
1305031911.429368 0.957915 7.435812 -6.274340
1305031911.432981 1.053706 7.292124 -6.657506
1305031911.433974 1.053706 7.292124 -6.657506
1305031911.437209 1.233315 7.244229 -6.849089
1305031911.438202 1.233315 7.244229 -6.849089
1305031911.441840 1.053706 7.148437 -6.849089
1305031911.443207 1.053706 7.148437 -6.849089
1305031911.444134 1.053706 7.148437 -6.849089
1305031911.445213 1.053706 7.148437 -6.849089
1305031911.448390 0.862123 7.148437 -6.849089
1305031911.449346 0.862123 7.148437 -6.849089
1305031911.453109 0.874097 6.861063 -6.849089
1305031911.453987 0.874097 6.861063 -6.849089
1305031911.457255 0.826201 7.052646 -6.657506
1305031911.458207 0.826201 7.052646 -6.657506
1305031911.461852 0.682514 7.244229 -6.657506
1305031911.462827 0.682514 7.244229 -6.657506
1305031911.464106 0.682514 7.244229 -6.657506
1305031911.465226 0.682514 7.244229 -6.657506
1305031911.468336 0.682514 7.244229 -6.082757
1305031911.469325 0.682514 7.244229 -6.082757
1305031911.472950 0.778306 7.244229 -5.986966
1305031911.473996 0.778306 7.244229 -5.986966
1305031911.477219 0.682514 7.435812 -5.891174
1305031911.478215 0.682514 7.435812 -5.891174
1305031911.481874 0.826201 7.615421 -5.555904
1305031911.482962 0.826201 7.615421 -5.555904
1305031911.484097 0.826201 7.615421 -5.555904
1305031911.485209 0.826201 7.615421 -5.555904
1305031911.488370 0.862123 7.675290 -5.508009
1305031911.489332 0.862123 7.675290 -5.508009
1305031911.492951 0.910019 7.818977 -5.172738
1305031911.493979 0.910019 7.818977 -5.172738
1305031911.497206 1.245289 7.723186 -5.148791
1305031911.498208 1.245289 7.723186 -5.148791
1305031911.501824 1.233315 8.010560 -5.220634
1305031911.502822 1.233315 8.010560 -5.220634
1305031911.504086 1.233315 8.010560 -5.220634
1305031911.505080 1.233315 8.010560 -5.220634
1305031911.508233 1.293185 7.914769 -5.220634
1305031911.509371 1.293185 7.914769 -5.220634
1305031911.513187 1.293185 7.818977 -5.603800
1305031911.514077 1.293185 7.818977 -5.603800
1305031911.515214 1.293185 7.818977 -5.603800
1305031911.518505 1.448846 7.435812 -5.891174
1305031911.521979 1.544637 7.244229 -6.274340
1305031911.522976 1.544637 7.244229 -6.274340
1305031911.524248 1.544637 7.244229 -6.274340
1305031911.525193 1.544637 7.244229 -6.274340
1305031911.528408 1.448846 6.908959 -6.370132
1305031911.529505 1.448846 6.908959 -6.370132
1305031911.532974 1.341080 6.669480 -6.561715
1305031911.533967 1.341080 6.669480 -6.561715
1305031911.537211 1.257263 6.573688 -6.657506
1305031911.538203 1.257263 6.573688 -6.657506
1305031911.541874 1.448846 6.453949 -6.849089
1305031911.543122 1.448846 6.453949 -6.849089
1305031911.544110 1.448846 6.453949 -6.849089
1305031911.545216 1.448846 6.453949 -6.849089
1305031911.548238 1.448846 6.430001 -6.849089
1305031911.549347 1.448846 6.430001 -6.849089
1305031911.552971 1.257263 6.477897 -6.370132
1305031911.553985 1.257263 6.477897 -6.370132
1305031911.557246 1.293185 6.501845 -6.370132
1305031911.558205 1.293185 6.501845 -6.370132
1305031911.561956 1.257263 6.837115 -5.795383
1305031911.563009 1.257263 6.837115 -5.795383
1305031911.564246 1.257263 6.837115 -5.795383
1305031911.565212 1.257263 6.837115 -5.795383
1305031911.568339 1.257263 6.861063 -5.316426
1305031911.569326 1.257263 6.861063 -5.316426
1305031911.573618 1.293185 7.148437 -5.124843
1305031911.574957 1.293185 7.148437 -5.124843
1305031911.577975 1.341080 7.292124 -5.100895
1305031911.579107 1.341080 7.292124 -5.100895
1305031911.582225 1.448846 7.340020 -4.741677
1305031911.583203 1.448846 7.340020 -4.741677
1305031911.586961 1.640429 7.435812 -4.454303
1305031911.588008 1.640429 7.435812 -4.454303
1305031911.589226 1.640429 7.435812 -4.454303
1305031911.590245 1.640429 7.435812 -4.454303
1305031911.593372 1.628455 7.627394 -4.550094
1305031911.594351 1.628455 7.627394 -4.550094
1305031911.597976 1.628455 7.627394 -5.029051
1305031911.598946 1.628455 7.627394 -5.029051
1305031911.602213 1.640429 7.627394 -5.316426
1305031911.603327 1.640429 7.627394 -5.316426
1305031911.606830 1.628455 7.435812 -5.412217
1305031911.607954 1.628455 7.435812 -5.412217
1305031911.609208 1.628455 7.435812 -5.412217
1305031911.610230 1.628455 7.435812 -5.412217
1305031911.613351 1.341080 7.435812 -5.603800
1305031911.614342 1.341080 7.435812 -5.603800
1305031911.618037 1.544637 7.268176 -5.891174
1305031911.618952 1.544637 7.268176 -5.891174
1305031911.622235 1.544637 7.292124 -5.891174
1305031911.623245 1.544637 7.292124 -5.891174
1305031911.626877 1.448846 7.435812 -5.891174
1305031911.627883 1.448846 7.435812 -5.891174
1305031911.629092 1.448846 7.435812 -5.891174
1305031911.630245 1.448846 7.435812 -5.891174
1305031911.633336 1.257263 7.531603 -5.795383
1305031911.634327 1.257263 7.531603 -5.795383
1305031911.637950 1.448846 7.627394 -5.603800
1305031911.638939 1.448846 7.627394 -5.603800
1305031911.642228 1.257263 7.627394 -5.519982
1305031911.643216 1.257263 7.627394 -5.519982
1305031911.646912 1.341080 7.723186 -5.412217
1305031911.647846 1.341080 7.723186 -5.412217
1305031911.649305 1.341080 7.723186 -5.412217
1305031911.652237 1.293185 7.627394 -5.316426
1305031911.653234 1.293185 7.627394 -5.316426
1305031911.656821 1.341080 7.627394 -5.508009
1305031911.657866 1.341080 7.627394 -5.508009
1305031911.659101 1.341080 7.627394 -5.508009
1305031911.660087 1.341080 7.627394 -5.508009
1305031911.663248 1.592533 7.615421 -5.412217
1305031911.664372 1.592533 7.615421 -5.412217
1305031911.667832 1.341080 7.435812 -5.172738
1305031911.668974 1.341080 7.435812 -5.172738
1305031911.672204 1.628455 7.244229 -5.124843
1305031911.673208 1.628455 7.244229 -5.124843
1305031911.677070 1.544637 7.435812 -5.136817
1305031911.677958 1.544637 7.435812 -5.136817
1305031911.678956 1.544637 7.435812 -5.136817
1305031911.682245 1.640429 7.435812 -5.124843
1305031911.683170 1.640429 7.435812 -5.124843
1305031911.684786 1.640429 7.435812 -5.124843
1305031911.688137 1.616481 7.244229 -5.508009
1305031911.689121 1.616481 7.244229 -5.508009
1305031911.692241 1.628455 7.292124 -5.555904
1305031911.693221 1.628455 7.292124 -5.555904
1305031911.696827 1.640429 7.244229 -5.699591
1305031911.697852 1.640429 7.244229 -5.699591
1305031911.699087 1.640429 7.244229 -5.699591
1305031911.700125 1.640429 7.244229 -5.699591
1305031911.703201 1.257263 7.435812 -5.699591
1305031911.704320 1.257263 7.435812 -5.699591
1305031911.707848 1.269237 7.435812 -5.699591
1305031911.709121 1.269237 7.435812 -5.699591
1305031911.712221 1.053706 7.627394 -5.316426
1305031911.713231 1.053706 7.627394 -5.316426
1305031911.716943 0.862123 7.998586 -5.124843
1305031911.717864 0.862123 7.998586 -5.124843
1305031911.719088 0.862123 7.998586 -5.124843
1305031911.720106 0.862123 7.998586 -5.124843
1305031911.723376 0.957915 8.202143 -5.412217
1305031911.724356 0.957915 8.202143 -5.412217
1305031911.727854 1.161471 8.297935 -5.508009
1305031911.728940 1.161471 8.297935 -5.508009
1305031911.732245 1.053706 8.369778 -5.316426
1305031911.733215 1.053706 8.369778 -5.316426
1305031911.737127 1.257263 8.393726 -5.508009
1305031911.738078 1.257263 8.393726 -5.508009
1305031911.739072 1.257263 8.393726 -5.508009
1305031911.743001 1.257263 8.106352 -5.531956
1305031911.743850 1.257263 8.106352 -5.531956
1305031911.745054 1.257263 8.106352 -5.531956
1305031911.748242 1.245289 8.058456 -5.508009
1305031911.749214 1.245289 8.058456 -5.508009
1305031911.752851 1.233315 7.914769 -5.316426
1305031911.753853 1.233315 7.914769 -5.316426
1305031911.757114 1.209367 8.010560 -5.316426
1305031911.758084 1.209367 8.010560 -5.316426
1305031911.759327 1.209367 8.010560 -5.316426
1305031911.760332 1.209367 8.010560 -5.316426
1305031911.764008 1.233315 8.010560 -5.412217
1305031911.764966 1.233315 8.010560 -5.412217
1305031911.768207 0.957915 8.010560 -5.484061
1305031911.769316 0.957915 8.010560 -5.484061
1305031911.773099 1.053706 7.914769 -5.699591
1305031911.774112 1.053706 7.914769 -5.699591
1305031911.775077 1.053706 7.914769 -5.699591
1305031911.778386 1.053706 8.010560 -5.939070
1305031911.779353 1.053706 8.010560 -5.939070
1305031911.782976 0.910019 8.010560 -6.274340
1305031911.783961 0.910019 8.010560 -6.274340
1305031911.787256 0.826201 8.106352 -6.274340
1305031911.788236 0.826201 8.106352 -6.274340
1305031911.791859 0.478957 8.202143 -6.633558
1305031911.792953 0.478957 8.202143 -6.633558
1305031911.794241 0.478957 8.202143 -6.633558
1305031911.795218 0.478957 8.202143 -6.633558
1305031911.798336 0.395140 8.381752 -6.681454
1305031911.799318 0.395140 8.381752 -6.681454
1305031911.802949 0.478957 8.297935 -6.944880
1305031911.803958 0.478957 8.297935 -6.944880
1305031911.807237 0.287374 8.393726 -6.944880
1305031911.808217 0.287374 8.393726 -6.944880
1305031911.811853 0.478957 8.297935 -6.849089
1305031911.813032 0.478957 8.297935 -6.849089
1305031911.813976 0.478957 8.297935 -6.849089
1305031911.817260 0.574749 8.489518 -6.370132
1305031911.818208 0.574749 8.489518 -6.370132
1305031911.821855 0.682514 8.405700 -6.274340
1305031911.822845 0.682514 8.405700 -6.274340
1305031911.824126 0.682514 8.405700 -6.274340
1305031911.825247 0.682514 8.405700 -6.274340
1305031911.828353 0.826201 8.441622 -6.082757
1305031911.829357 0.826201 8.441622 -6.082757
1305031911.832957 0.874097 8.405700 -5.891174
1305031911.833951 0.874097 8.405700 -5.891174
1305031911.837219 0.910019 8.417674 -6.082757
1305031911.838332 0.910019 8.417674 -6.082757
1305031911.841867 0.862123 8.393726 -6.226444
1305031911.842962 0.862123 8.393726 -6.226444
1305031911.844087 0.862123 8.393726 -6.226444
1305031911.845231 0.862123 8.393726 -6.226444
1305031911.848370 0.862123 8.202143 -6.370132
1305031911.849332 0.862123 8.202143 -6.370132
1305031911.852969 0.862123 8.010560 -6.465923
1305031911.854088 0.862123 8.010560 -6.465923
1305031911.857239 0.862123 7.818977 -6.465923
1305031911.858248 0.862123 7.818977 -6.465923
1305031911.861840 0.957915 7.723186 -6.849089
1305031911.862990 0.957915 7.723186 -6.849089
1305031911.864107 0.957915 7.723186 -6.849089
1305031911.865223 0.957915 7.723186 -6.849089
1305031911.868217 0.826201 7.818977 -6.849089
1305031911.869330 0.826201 7.818977 -6.849089
1305031911.872954 0.862123 7.962665 -6.849089
1305031911.873996 0.862123 7.962665 -6.849089
1305031911.877214 0.826201 8.010560 -6.705402
1305031911.878234 0.826201 8.010560 -6.705402
1305031911.881867 0.862123 7.914769 -6.849089
1305031911.882852 0.862123 7.914769 -6.849089
1305031911.884104 0.862123 7.914769 -6.849089
1305031911.885222 0.862123 7.914769 -6.849089
1305031911.888371 0.862123 8.010560 -6.657506
1305031911.889354 0.862123 8.010560 -6.657506
1305031911.892999 0.778306 7.914769 -6.657506
1305031911.894159 0.778306 7.914769 -6.657506
1305031911.897238 0.957915 7.723186 -6.849089
1305031911.898211 0.957915 7.723186 -6.849089
1305031911.901839 0.862123 7.723186 -6.657506
1305031911.902948 0.862123 7.723186 -6.657506
1305031911.904091 0.862123 7.723186 -6.657506
1305031911.905230 0.862123 7.723186 -6.657506
1305031911.908401 0.910019 7.818977 -7.028698
1305031911.911871 1.053706 7.723186 -7.040672
1305031911.912892 1.053706 7.723186 -7.040672
1305031911.914112 1.053706 7.723186 -7.040672
1305031911.915090 1.053706 7.723186 -7.040672
1305031911.918375 1.053706 8.010560 -7.040672
1305031911.919496 1.053706 8.010560 -7.040672
1305031911.922991 1.053706 7.818977 -7.136463
1305031911.924125 1.053706 7.818977 -7.136463
1305031911.927249 0.874097 7.998586 -7.088568
1305031911.928234 0.874097 7.998586 -7.088568
1305031911.931913 0.874097 7.818977 -7.040672
1305031911.932966 0.874097 7.818977 -7.040672
1305031911.933952 0.874097 7.818977 -7.040672
1305031911.937218 0.778306 7.962665 -6.849089
1305031911.938197 0.778306 7.962665 -6.849089
1305031911.941861 0.682514 7.818977 -6.657506
1305031911.942868 0.682514 7.818977 -6.657506
1305031911.944108 0.682514 7.818977 -6.657506
1305031911.945225 0.682514 7.818977 -6.657506
1305031911.948348 0.574749 8.010560 -6.262366
1305031911.949342 0.574749 8.010560 -6.262366
1305031911.952990 0.682514 8.106352 -5.891174
1305031911.953968 0.682514 8.106352 -5.891174
1305031911.957232 0.778306 8.034508 -5.891174
1305031911.958234 0.778306 8.034508 -5.891174
1305031911.961859 0.862123 8.297935 -5.519982
1305031911.962834 0.862123 8.297935 -5.519982
1305031911.964129 0.862123 8.297935 -5.519982
1305031911.965218 0.862123 8.297935 -5.519982
1305031911.968327 0.874097 8.393726 -5.316426
1305031911.969320 0.874097 8.393726 -5.316426
1305031911.973034 0.862123 8.585309 -5.148791
1305031911.973964 0.862123 8.585309 -5.148791
1305031911.977215 0.957915 8.417674 -5.316426
1305031911.978211 0.957915 8.417674 -5.316426
1305031911.981868 1.245289 8.393726 -5.508009
1305031911.982846 1.245289 8.393726 -5.508009
1305031911.984107 1.245289 8.393726 -5.508009
1305031911.985233 1.245289 8.393726 -5.508009
1305031911.988265 1.245289 8.345830 -5.496035
1305031911.989350 1.245289 8.345830 -5.496035
1305031911.992959 1.257263 8.297935 -5.508009
1305031911.994023 1.257263 8.297935 -5.508009
1305031911.997102 1.448846 8.106352 -5.699591
1305031911.998216 1.448846 8.106352 -5.699591
1305031911.999327 1.448846 8.106352 -5.699591
1305031912.000486 1.448846 8.106352 -5.699591
1305031912.004103 1.652403 8.010560 -6.226444
1305031912.006211 1.652403 8.010560 -6.226444
1305031912.008240 1.640429 7.962665 -6.226444
1305031912.009377 1.640429 7.962665 -6.226444
1305031912.012986 1.676350 7.818977 -6.178549
1305031912.013982 1.676350 7.818977 -6.178549
1305031912.017242 1.820038 7.627394 -6.178549
1305031912.018212 1.820038 7.627394 -6.178549
1305031912.021858 1.640429 7.435812 -5.891174
1305031912.022853 1.640429 7.435812 -5.891174
1305031912.024108 1.640429 7.435812 -5.891174
1305031912.025244 1.640429 7.435812 -5.891174
1305031912.028373 1.724246 7.148437 -5.795383
1305031912.029357 1.724246 7.148437 -5.795383
1305031912.032986 2.011621 6.956854 -5.795383
1305031912.033968 2.011621 6.956854 -5.795383
1305031912.037213 2.011621 6.861063 -5.603800
1305031912.038207 2.011621 6.861063 -5.603800
1305031912.041846 2.011621 6.669480 -5.555904
1305031912.042902 2.011621 6.669480 -5.555904
1305031912.045360 2.011621 6.669480 -5.555904
1305031912.047167 2.107412 6.837115 -5.603800
1305031912.048202 2.107412 6.837115 -5.603800
1305031912.051894 2.310969 6.765271 -5.603800
1305031912.052830 2.310969 6.765271 -5.603800
1305031912.053881 2.310969 6.765271 -5.603800
1305031912.057220 2.406760 6.573688 -5.603800
1305031912.058243 2.406760 6.573688 -5.603800
1305031912.061877 2.490578 6.489871 -5.519982
1305031912.062849 2.490578 6.489871 -5.519982
1305031912.064120 2.490578 6.489871 -5.519982
1305031912.065222 2.490578 6.489871 -5.519982
1305031912.068352 2.490578 6.477897 -5.986966
1305031912.069469 2.490578 6.477897 -5.986966
1305031912.073170 2.418734 6.382106 -5.986966
1305031912.074229 2.418734 6.382106 -5.986966
1305031912.075348 2.418734 6.382106 -5.986966
1305031912.078349 2.406760 6.477897 -6.274340
1305031912.079336 2.406760 6.477897 -6.274340
1305031912.082999 2.406760 6.477897 -6.657506
1305031912.083984 2.406760 6.477897 -6.657506
1305031912.087241 2.490578 6.477897 -6.753297
1305031912.088213 2.490578 6.477897 -6.753297
1305031912.091859 2.406760 6.501845 -6.657506
1305031912.092828 2.406760 6.501845 -6.657506
1305031912.094102 2.406760 6.501845 -6.657506
1305031912.095104 2.406760 6.501845 -6.657506
1305031912.098368 2.406760 6.501845 -6.992776
1305031912.099715 2.406760 6.501845 -6.992776
1305031912.102969 2.406760 6.477897 -6.849089
1305031912.103964 2.406760 6.477897 -6.849089
1305031912.107262 2.382812 6.669480 -6.657506
1305031912.108399 2.382812 6.669480 -6.657506
1305031912.109433 2.382812 6.669480 -6.657506
1305031912.113111 2.310969 6.669480 -6.274340
1305031912.114105 2.310969 6.669480 -6.274340
1305031912.117215 2.406760 6.861063 -6.274340
1305031912.118208 2.406760 6.861063 -6.274340
1305031912.121859 2.215177 6.861063 -6.274340
1305031912.122977 2.215177 6.861063 -6.274340
1305031912.123967 2.215177 6.861063 -6.274340
1305031912.127254 2.215177 7.220281 -5.891174
1305031912.128265 2.215177 7.220281 -5.891174
1305031912.131856 2.059516 7.244229 -5.555904
1305031912.132954 2.059516 7.244229 -5.555904
1305031912.134206 2.059516 7.244229 -5.555904
1305031912.135195 2.059516 7.244229 -5.555904
1305031912.138205 2.215177 7.292124 -5.603800
1305031912.139311 2.215177 7.292124 -5.603800
1305031912.143014 2.035568 7.579499 -5.603800
1305031912.143960 2.035568 7.579499 -5.603800
1305031912.147082 2.107412 7.675290 -5.603800
1305031912.148227 2.107412 7.675290 -5.603800
1305031912.151879 2.107412 7.818977 -5.891174
1305031912.152961 2.107412 7.818977 -5.891174
1305031912.153941 2.107412 7.818977 -5.891174
1305031912.157208 1.927803 7.962665 -5.891174
1305031912.158211 1.927803 7.962665 -5.891174
1305031912.161983 1.820038 7.914769 -6.178549
1305031912.162966 1.820038 7.914769 -6.178549
1305031912.164246 1.820038 7.914769 -6.178549
1305031912.165217 1.820038 7.914769 -6.178549
1305031912.168222 1.640429 7.914769 -6.274340
1305031912.169329 1.640429 7.914769 -6.274340
1305031912.172973 1.640429 7.675290 -6.465923
1305031912.174217 1.640429 7.675290 -6.465923
1305031912.177219 1.628455 7.818977 -6.274340
